time,altitude,Temperature (deg C),Mode,IMU Quat W,IMU Quat X,IMU Quat Y,IMU Quat Z,IMU Local Acceleration X,IMU Local Acceleration Y,IMU Local Acceleration Z,accel_x,accel_y,accel,State Estimation y,State Estimation v,State Estimation a,Commanded servo deployment,deployment,filtered_altitude,filtered_velocity,filtered_accel,saturated,predicted_apogee,predicted_apogee_no_brake,cd_total,cd_calculated,integrated_vx,integrated_vy,integrated_x,integrated_y
0,-1.222763,18.134832,2,0.91333,-0.025085,0.022827,-0.405762,1.33,4.46,78.87,9.085527,4.15145,78.373171,-0.937996,0.697124,77.671807,0,0,-1.21999425,0.615896106,76.98739784,FALSE,-1.200660886,-1.200660886,0.4,,0,0,0,0
0.00871,-1.872986,18.130189,2,0.913025,-0.025024,0.022766,-0.406433,1.96,2.49,78.12,7.992278,2.33145,77.739707,-1.472314,0.570986,77.738958,0,0,-1.272933933,1.286196062,77.68224998,FALSE,-1.188624084,-1.188624084,0.4,,0.074373841,0.02823303,0.000323898,0.000122955
0.017554,-1.501587,18.130189,2,0.912292,-0.025024,0.0224,-0.408142,2.34,2.21,79.98,8.103923,1.915162,79.610415,-1.481086,1.253052,79.589792,0,0,-1.279347144,1.973971369,79.46248988,FALSE,-1.080785452,-1.080785452,0.4,,0.145551242,0.047011548,0.001296407,0.000455686
0.029915,-1.779877,18.134832,2,0.911438,-0.025024,0.021912,-0.410034,0.85,2.1,84.27,7.225983,3.084819,83.933501,-1.632533,2.077261,83.885634,0,0,-1.291308412,2.958331453,83.59048455,FALSE,-0.845448138,-0.845448138,0.4,,0.240297726,0.07791393,0.003681146,0.001227788
0.038673,-1.501587,18.130189,2,0.90918,-0.024963,0.021301,-0.4151,2.96,2.01,84.89,8.499649,1.429596,84.527071,-1.535031,2.928833,84.520003,0,0,-1.280158424,3.68996495,84.45521598,FALSE,-0.586667479,-0.586667479,0.4,,0.309160268,0.097682554,0.006087223,0.001996725
0.04772,-1.130157,18.130189,2,0.906494,-0.025208,0.021545,-0.420898,-0.57,3.8,86.48,7.741195,5.268108,86.057395,-1.270714,4.011363,86.040454,0,0,-1.235295145,4.455752885,85.93447564,FALSE,-0.224416461,-0.224416461,0.4,,0.382625726,0.127979618,0.009216517,0.003017508
0.060389,-0.665604,18.125547,2,0.904297,-0.025757,0.022156,-0.425537,-0.15,4.21,86.9,8.526866,5.204836,86.426605,-0.861612,5.543523,86.422349,0,0,-1.137881085,5.548293709,86.38884879,FALSE,0.428623032,0.428623032,0.4,0,0.485675758,0.194320481,0.014716773,0.005059118
0.06898,-1.408478,18.125547,2,0.901001,-0.026184,0.022278,-0.432434,1.63,-3.26,86.49,3.912971,-0.893882,86.473661,-1.12864,5.811882,86.473096,0,0,-1.107638406,6.288149115,86.46715419,FALSE,0.903596653,0.903596653,0.4,0,0.539111078,0.212838184,0.019118744,0.006808068
0.080793,-0.944962,18.130189,2,0.897156,-0.026672,0.022461,-0.440308,-2.04,1.43,87.63,5.471026,4.948209,87.354478,-0.947211,6.981829,87.344765,0,0,-1.022260977,7.311077905,87.28640242,FALSE,1.694614648,1.694614648,0.4,0,0.594537657,0.236785067,0.025814641,0.009463768
0.089406,-1.222763,18.134832,2,0.893311,-0.026978,0.022644,-0.447998,-5.86,-2.41,87.64,0.23622,5.704416,87.683041,-1.043807,7.504902,87.679313,0,0,-0.971782161,8.060674936,87.65261084,FALSE,2.328819093,2.328819093,0.4,0,0.619115911,0.282660596,0.03104124,0.011700761
0.098005,-1.501587,18.130189,2,0.887817,-0.027161,0.022705,-0.458862,-0.59,8.56,87.66,12.342059,7.825159,86.858174,-1.240724,7.912141,86.867223,0,0,-0.933466252,8.807855398,86.91912328,FALSE,3.004845674,3.004845674,0.4,0,0.673196222,0.340831004,0.036597536,0.014381463
0.11051,-1.130157,18.139474,2,0.881226,-0.027222,0.0224,-0.471313,-10.28,-9.21,82.76,-7.950898,5.670305,83.332687,-1.071151,9.031766,83.371637,0,0,-0.833805353,9.887867765,83.60783881,FALSE,4.124420899,4.124420899,0.4,0,0.700651956,0.425211393,0.045187522,0.019171143
0.119369,-1.222763,18.134832,2,0.874451,-0.027039,0.022095,-0.483826,11.82,-10.51,88.51,3.129943,-13.296792,88.86838,-1.075736,9.690002,88.807807,0,0,-0.76850224,10.62642332,88.46479066,FALSE,4.953645594,4.953645594,0.4,0,0.679297536,0.391429869,0.051300008,0.022788455
0.128237,0.076279,18.125547,2,0.867432,-0.026611,0.021606,-0.496338,-9.21,-2.19,85.1,-1.108908,8.936815,85.150027,-0.319782,11.318267,85.190334,0,0,-0.632069695,11.41829489,85.40433606,FALSE,5.968790578,5.968790578,0.4,0,0.688258805,0.372097731,0.057363753,0.026173937
0.14072,-0.572998,18.130189,2,0.861267,-0.027161,0.021606,-0.506958,-2.01,9.39,80.86,12.450069,8.318799,80.039637,-0.319227,12.135469,80.096396,0,0,-0.487474163,12.47808702,80.45121734,FALSE,7.385410507,7.385410507,0.4,0,0.759044662,0.479798645,0.066397097,0.031491048
0.149355,-0.016327,18.130189,2,0.858032,-0.028015,0.020996,-0.512451,-8.58,-3.32,82.26,-1.656018,8.168821,82.352192,-0.035369,13.107343,82.327334,0,0,-0.358913219,13.17949586,82.206349,FALSE,8.415905166,8.415905166,0.4,0,0.805647977,0.550983945,0.073152658,0.035941452
0.158334,0.076797,18.134832,2,0.85791,-0.02887,0.021301,-0.512512,4.62,11.62,92.4,18.504288,3.987347,91.300671,0.150912,14.011465,91.201788,0,0,-0.222045767,13.92886172,90.60295356,FALSE,9.568885942,9.568885942,0.4,0,0.881288285,0.605559061,0.080726158,0.041133752
0.170945,0.262527,18.134832,2,0.859619,-0.029114,0.021545,-0.509644,-1.28,7.73,84.08,11.758996,7.18653,83.312162,0.39903,15.14306,83.399104,0,0,-0.024893514,15.06978103,83.87151238,FALSE,11.41650234,11.41650234,0.4,0,1.072113422,0.676015942,0.093043332,0.049214723
0.179828,-0.016327,18.130189,2,0.861938,-0.028564,0.022583,-0.505737,5.6,3.57,86.99,11.737368,-0.855002,86.445764,0.295457,15.550469,86.412191,0,0,0.106288438,15.81428983,86.24826711,FALSE,12.69148525,12.69148525,0.4,0,1.176472523,0.704137424,0.103030427,0.055344674
0.188687,0.820282,18.134832,2,0.86084,-0.02832,0.022583,-0.507507,-13.66,2.44,88.43,1.499627,15.416993,88.1615,0.740496,16.733795,88.142223,0,0,0.275967079,16.59045282,88.01471655,FALSE,14.10928523,14.10928523,0.4,0,1.235105792,0.768639763,0.113712513,0.06186834
0.235637,0.540894,18.139474,2,0.874817,-0.027222,0.027893,-0.48291,-7.94,6.26,88.31,7.686816,11.878703,87.753654,1.502024,20.709586,87.757936,0,0,1.123208418,20.70545759,87.77368263,FALSE,22.50498792,22.50498792,0.4,0,1.450757542,1.409406227,0.176763155,0.11299797
0.244023,1.376511,18.106977,2,0.878784,-0.027466,0.027954,-0.475647,0.69,2.55,88.29,9.149194,2.728612,87.812028,1.599111,21.17562,87.811432,0,0,1.303472884,21.44364454,87.80908614,FALSE,24.2016164,24.2016164,0.4,0,1.521350932,1.470654698,0.189225206,0.125074066
0.252466,2.2117,18.11162,2,0.878784,-0.027466,0.027954,-0.475647,1.04,3.97,88.17,10.516162,3.208215,87.578037,2.1446,22.665674,87.580609,0,0,1.520703762,22.20486322,87.59576312,FALSE,26.03302872,26.03302872,0.4,0,1.604368232,1.495717014,0.202420429,0.137596604
0.26414,3.047455,18.106977,2,0.887939,-0.026123,0.027954,-0.458313,0.88,3.19,86.83,9.490304,2.931275,86.323447,2.942709,24.441166,86.337301,0,0,1.8430176,23.26253788,86.42105926,FALSE,28.68233081,28.68233081,0.4,0,1.721145974,1.531553217,0.221831456,0.15526678
0.272543,2.955338,18.102335,2,0.887939,-0.026123,0.027954,-0.458313,-1.25,3.92,87.1,8.871405,5.095948,86.594823,3.158479,25.179145,86.591985,0,0,2.082477424,24.01544875,86.58149183,FALSE,30.63720431,30.63720431,0.4,0,1.798292694,1.565279594,0.236618377,0.168278123
0.281201,3.512192,18.11162,2,0.892639,-0.024536,0.027527,-0.44928,-1.44,3.62,87.95,8.303376,4.98833,87.501729,3.583979,26.176736,87.491704,0,0,2.347713342,24.80175166,87.43112831,FALSE,32.74561182,32.74561182,0.4,0,1.872642321,1.608934434,0.252509855,0.182019296
0.292789,3.419037,18.106977,2,0.897095,-0.022156,0.026978,-0.440369,-1.53,4.11,87.01,8.217444,5.114016,86.581095,3.797776,27.075854,86.59113,0,0,2.675335084,25.83806376,86.64630967,FALSE,35.58207756,35.58207756,0.4,0,1.968363952,1.667467426,0.274764645,0.201002768
0.301318,3.604843,18.116262,2,0.901428,-0.019226,0.025818,-0.431702,-0.84,3.2,86.47,7.421801,3.72918,86.133704,3.920249,27.670142,86.138744,0,0,2.92977855,26.59874445,86.17303117,FALSE,37.73494717,37.73494717,0.4,0,2.035057513,1.705179236,0.291837236,0.21538542
0.309918,3.883804,18.120904,2,0.905579,-0.015625,0.024353,-0.423218,-0.35,3.2,86.52,7.18663,2.985657,86.229417,4.140388,28.388016,86.228418,0,0,3.193115089,27.36275274,86.22509108,FALSE,39.95282352,39.95282352,0.4,0,2.097873766,1.734053035,0.30960884,0.230174118
0.322092,4.069611,18.120904,2,0.909607,-0.011475,0.0224,-0.414734,-0.38,2.35,85.37,5.814329,2.023767,85.180999,4.451375,29.380997,85.192541,0,0,3.555934482,28.42921594,85.26110187,FALSE,43.12293665,43.12293665,0.4,0,2.177010603,1.764545399,0.335630062,0.251470087
0.330708,4.905518,18.116262,2,0.913513,-0.006592,0.02002,-0.40625,-2.05,2.94,85.77,4.406194,3.129264,85.674569,4.970649,30.461029,85.669257,0,0,3.851606851,29.20098085,85.64284776,FALSE,45.50672755,45.50672755,0.4,0,2.221040616,1.786744656,0.354576866,0.266769045
0.339642,5.276657,18.116262,2,0.917297,-0.001099,0.017212,-0.397827,-0.35,1.89,85.21,3.905493,0.552026,85.140361,5.422805,31.426333,85.146189,0,0,4.165789896,30.00529919,85.17891185,FALSE,48.04688694,48.04688694,0.4,0,2.258168922,1.803188979,0.374585495,0.282805278
0.352135,5.834152,18.125547,2,0.920837,0.004944,0.013977,-0.389648,-1.81,2.05,84.46,2.060391,1.037064,84.472772,6.060161,32.74813,84.480193,0,0,4.602675722,31.11439368,84.52694715,FALSE,51.63523312,51.63523312,0.4,0,2.295434817,1.813115229,0.403029581,0.305394522
0.361022,6.20636,18.116262,2,0.924194,0.011536,0.010376,-0.381653,-0.74,1.14,84.8,1.159895,-1.15031,84.795159,6.439317,33.615953,84.791688,0,0,4.939293663,31.91341496,84.77458177,FALSE,54.30018769,54.30018769,0.4,0,2.309744158,1.812612021,0.423492694,0.321505442
0.369763,6.763397,18.125547,2,0.927307,0.018677,0.00647,-0.37384,-1.55,1.12,84.05,-0.505017,-1.437463,84.057947,6.923558,34.575998,84.066032,0,0,5.28737259,32.71023174,84.11292732,FALSE,57.01768317,57.01768317,0.4,0,2.312606302,1.801302159,0.443694677,0.337300053
0.38217,7.135117,18.125547,2,0.930115,0.026367,0.002197,-0.366272,-1.91,0.62,83.64,-2.248645,-2.483144,83.597006,7.481479,35.751688,83.602174,0,0,5.76121117,33.80772627,83.63658757,FALSE,60.83135125,60.83135125,0.4,0,2.29552396,1.776980673,0.472281213,0.359497931
0.390781,7.6922,18.125547,2,0.932739,0.034485,-0.00238,-0.358887,-1.31,-0.83,83.28,-3.959256,-4.952142,83.052778,7.914568,36.63235,83.058832,0,0,6.125384386,34.59027702,83.09756795,FALSE,63.62998486,63.62998486,0.4,0,2.268795842,1.744968049,0.491932892,0.374661681
0.399658,8.343552,18.130189,2,0.935181,0.04303,-0.007202,-0.351562,-2.25,-0.47,83.01,-5.63203,-5.131584,82.691551,8.490757,37.662046,82.695599,0,0,6.51708795,35.40180619,82.72270068,FALSE,66.59209109,66.59209109,0.4,0,2.226224919,1.700211432,0.511884041,0.38995311
0.412296,9.086075,18.130189,2,0.937378,0.052002,-0.012207,-0.344238,-1.93,-2.33,82.21,-7.797437,-7.841007,81.519068,9.31812,39.085752,81.532033,0,0,7.061756413,36.53136833,81.61141087,FALSE,70.79062588,70.79062588,0.4,0,2.141364117,1.618237629,0.539482836,0.41092239
0.421143,10.480148,18.125547,2,0.939392,0.061218,-0.017456,-0.336975,-2.74,-2.46,81.32,-9.69033,-8.538728,80.372225,10.341308,40.728524,80.385006,0,0,7.520469613,37.37862369,80.46729551,FALSE,74.0470127,74.0470127,0.4,0,2.06400698,1.545781871,0.558085295,0.42491843
0.42983,11.409805,18.116262,2,0.941223,0.070679,-0.022888,-0.329529,-2.11,-3.65,81.28,-11.190046,-11.093263,79.849463,11.315507,42.179199,79.855364,0,0,8.000398501,38.22405649,79.89686321,FALSE,77.36629533,77.36629533,0.4,0,1.973313067,1.460510318,0.575621395,0.43797626
0.442336,12.33902,18.125547,2,0.942993,0.080261,-0.028503,-0.321777,-2.81,-4.18,81.06,-13.285615,-12.325647,79.168608,12.442096,43.849004,79.176176,0,0,8.650343768,39.38686457,79.22447988,FALSE,81.99765309,81.99765309,0.4,0,1.820266758,1.314071874,0.59934265,0.455325723
0.450952,11.874405,18.130189,2,0.944702,0.089905,-0.034241,-0.313538,-3.56,-5.56,80.14,-15.813903,-14.138472,77.563111,12.493516,44.062047,77.580887,0,0,9.116331394,40.19226156,77.69057144,FALSE,85.27187528,85.27187528,0.4,0,1.694906035,1.20006445,0.614486014,0.466156622
0.462928,12.896912,18.134832,2,0.94635,0.099487,-0.0401,-0.30481,-3.17,-6.96,79.98,-17.45156,-16.779856,76.610497,13.26063,45.262702,76.62119,0,0,9.745383946,41.26744542,76.69336048,FALSE,89.71282429,89.71282429,0.4,0,1.495712442,1.014925501,0.633591437,0.479419982
0.47155,14.29097,18.130189,2,0.948059,0.108887,-0.046021,-0.295288,-4.41,-7.34,79.9,-19.768513,-17.697314,75.85077,14.251176,46.738544,75.85926,0,0,10.2845349,42.11481366,75.91541368,FALSE,93.30581077,93.30581077,0.4,0,1.335256708,0.866294422,0.645795745,0.487529921
0.480452,15.034958,18.130189,2,0.949829,0.117981,-0.052124,-0.284973,-3.43,-8.13,79.48,-20.369854,-20.136329,74.662837,15.123015,47.953075,74.676021,0,0,10.85087883,42.98656568,74.75893487,FALSE,97.05846471,97.05846471,0.4,0,1.156600836,0.697896877,0.656887003,0.494492136
0.492979,15.592987,18.130189,2,0.95166,0.126648,-0.058289,-0.273804,-4.62,-9.34,78.79,-22.830869,-21.641646,72.98539,16.001802,49.184187,73.00402,0,0,11.57744135,44.11609764,73.12145663,FALSE,101.9791935,101.9791935,0.4,0,0.886013108,0.43622053,0.669680916,0.501595681
0.501826,17.824387,18.130189,2,0.953552,0.134827,-0.064514,-0.261414,-5.01,-10.46,78.5,-24.508165,-23.602047,71.686948,17.497534,51.298793,71.701462,0,0,12.22460651,45.03557032,71.79700372,FALSE,106.0938761,106.0938761,0.4,0,0.676608891,0.236085054,0.676593174,0.504569625
0.510412,19.126846,18.139474,2,0.955627,0.142334,-0.070923,-0.247864,-5.87,-10.69,77.42,-25.895117,-24.383143,69.838828,18.882123,53.070588,69.859353,0,0,12.89633492,45.95696944,69.98905952,FALSE,110.2871525,110.2871525,0.4,0,0.460227601,0.030084634,0.681473613,0.505712291
0.522769,20.42894,18.130189,2,0.957886,0.149109,-0.077454,-0.23291,-6.63,-11.62,77.24,-27.573678,-26.008616,68.616768,20.439197,54.956169,68.630461,0,0,13.77356749,47.15684228,68.72205047,FALSE,115.8185004,115.8185004,0.4,0,0.129870651,-0.281260849,0.685119535,0.504160399
0.531273,21.544571,18.130189,2,0.960388,0.154846,-0.08429,-0.215759,-7.62,-11.44,76.79,-28.808106,-26.515669,67.473245,21.550027,56.422384,67.485998,0,0,14.49862386,48.09801419,67.56905357,FALSE,120.2467225,120.2467225,0.4,0,-0.109864694,-0.504594109,0.685204601,0.500818944
0.540367,23.313156,18.134832,2,0.963196,0.159546,-0.09137,-0.195984,-8.96,-11.88,76.21,-30.440862,-27.412173,65.964186,23.084758,58.266514,65.980956,0,0,15.30451136,49.12105449,66.0873117,FALSE,125.1286988,125.1286988,0.4,0,-0.379269752,-0.749804007,0.682980506,0.495115195
0.553016,24.523483,18.139474,2,0.966125,0.163086,-0.098633,-0.173828,-10.11,-11.78,75.6,-31.574461,-27.951435,64.63792,24.66129,60.075081,64.65272,0,0,16.30948808,50.38756516,64.74911764,FALSE,131.250844,131.250844,0.4,0,-0.771485662,-1.099951146,0.675702554,0.483416419
0.561887,27.594009,18.134832,2,0.969055,0.165527,-0.106018,-0.149231,-11.96,-11.19,75.22,-33.17409,-27.9507,63.596574,26.899971,63.07382,63.608212,0,0,17.23611696,51.50864254,63.68499738,FALSE,136.7703893,136.7703893,0.4,0,-1.05867786,-1.347905065,0.667584863,0.472558953
0.570624,28.990036,18.130189,2,0.971741,0.166809,-0.113281,-0.122681,-12.74,-10.55,75.15,-33.767036,-28.400397,63.042263,28.662019,65.155495,63.048499,0,0,18.18609282,52.63824498,63.09157375,FALSE,142.4062394,142.4062394,0.4,0,-1.351110169,-1.594074833,0.657057704,0.459706913
0.583134,30.015274,18.144116,2,0.973999,0.167114,-0.120239,-0.094727,-13.84,-9.52,73.27,-34.047034,-27.890488,60.939459,30.266438,66.84744,60.9627,0,0,19.34514288,54.00647016,61.10456967,FALSE,149.3161123,149.3161123,0.4,0,-1.775287177,-1.946174318,0.637502089,0.437562655
0.59184,31.317734,18.125547,2,0.975708,0.166443,-0.12677,-0.06488,-14.7,-9.05,73.02,-34.508495,-28.506576,60.219946,31.460973,68.240228,60.228131,0,0,20.32786555,55.13804344,60.28781454,FALSE,155.1147241,155.1147241,0.4,0,-2.073709395,-2.191670738,0.620747407,0.419550615
0.603853,32.621902,18.134832,2,0.976746,0.165161,-0.132507,-0.034363,-14.6,-8.19,72.34,-33.79058,-28.7858,59.522543,32.958881,69.79785,59.530319,0,0,21.51415544,56.48112479,59.58125489,FALSE,162.084318,162.084318,0.4,0,-2.483947789,-2.535797394,0.593371839,0.391155078
0.612768,32.994034,18.134832,2,0.97699,0.163391,-0.137085,-0.003784,-14.52,-8.61,71.59,-32.916531,-30.173976,58.447718,33.603859,70.347785,58.459648,0,0,22.51037241,57.59811464,58.53468318,FALSE,167.9436501,167.9436501,0.4,0,-2.781294736,-2.798610596,0.56990202,0.367376954
0.621613,32.714279,18.130189,2,0.976501,0.16156,-0.140259,0.025146,-14.29,-8.26,70.72,-31.727092,-30.685473,57.6672,33.713887,70.205406,57.675932,0,0,23.45508289,58.63488777,57.73375349,FALSE,173.4438448,173.4438448,0.4,0,-3.067181159,-3.067761509,0.544037136,0.341432924
0.633732,32.994034,18.134832,2,0.975586,0.160034,-0.141663,0.05072,-14.01,-7.48,70.01,-30.51099,-30.676603,57.285908,34.151652,70.399983,57.290206,0,0,24.56705469,59.81686091,57.32026689,FALSE,179.796243,179.796243,0.4,0,-3.444312817,-3.439585009,0.504580738,0.302001658
0.642359,33.553024,18.134832,2,0.974365,0.159058,-0.141235,0.072876,-13.99,-7.17,69.14,-29.369385,-30.943223,56.633668,34.413812,70.39998,56.640903,0,0,25.46599204,60.77448867,56.68634402,FALSE,184.9762112,184.9762112,0.4,0,-3.702606814,-3.705382128,0.4737525,0.271181842
0.651065,32.156876,18.139474,2,0.973145,0.158386,-0.13916,0.092285,-13.45,-6.5,68.49,-27.793989,-30.758313,56.52816,33.72462,69.265675,56.529402,0,0,26.27405261,61.6056019,56.54029595,FALSE,189.5243707,189.5243707,0.4,0,-3.951438981,-3.973968914,0.440434439,0.237753627
0.66351,32.343185,18.139474,2,0.971863,0.15802,-0.13562,0.109924,-12.34,-6.48,67.54,-25.383304,-30.865984,56.203774,33.7903,69.018905,56.207362,0,0,27.28517682,62.60554128,56.22959208,FALSE,195.0646087,195.0646087,0.4,0,-4.282334687,-4.357426102,0.389199782,0.185911521
0.672438,32.621384,18.125547,2,0.97052,0.157776,-0.130859,0.12677,-11.17,-7.73,66.5,-22.438198,-31.955932,55.5168,33.729954,68.545632,55.52441,0,0,28.0626565,63.37480057,55.57148554,FALSE,199.3473921,199.3473921,0.4,0,-4.495809872,-4.637863135,0.350014145,0.14575655
0.681327,32.342148,18.130189,2,0.968933,0.157532,-0.125061,0.143738,-10.46,-7.12,65.23,-20.291358,-31.232105,55.025766,33.538643,68.006972,55.031261,0,0,28.79636635,64.07695631,55.0676337,FALSE,203.296075,203.296075,0.4,0,-4.685721383,-4.918702366,0.309206829,0.103282395
0.693842,31.783218,18.130189,2,0.967041,0.157227,-0.118408,0.161438,-8.43,-8.08,64.7,-16.463051,-31.725729,55.180312,33.375745,67.463882,55.178669,0,0,29.70217597,64.89116752,55.17166734,FALSE,207.9478119,207.9478119,0.4,0,-4.915712098,-5.312661012,0.249125859,0.039259638
0.702565,30.852768,18.139474,2,0.964661,0.156677,-0.111206,0.180298,-8.21,-7.01,63.71,-14.860133,-30.592968,54.943149,32.500989,65.820688,54.945745,0,0,30.29688926,65.40562857,54.96068096,FALSE,210.9190216,210.9190216,0.4,0,-5.052328165,-5.584464009,0.205650252,-0.008268172
0.711311,30.014236,18.134832,2,0.96167,0.155945,-0.103516,0.200317,-6.37,-8.37,63.08,-10.845171,-31.075686,54.830524,31.640712,64.464028,54.831793,0,0,30.83197833,65.83716398,54.84050965,FALSE,213.4531476,213.4531476,0.4,0,-5.164737459,-5.854141033,0.160971024,-0.058289192
0.731776,30.014236,18.134832,2,0.95343,0.153687,-0.087524,0.244202,-4.53,-8.5,61.87,-5.415421,-29.84856,54.775687,32.019175,64.45117,54.776305,0,0,32.08882547,66.82728687,54.78066012,FALSE,219.3154224,219.3154224,0.4,0,-5.331123967,-6.47754838,0.053572122,-0.184473204
0.741278,29.548325,18.130189,2,0.94812,0.152222,-0.079468,0.267639,-3.53,-7.44,60.84,-3.23452,-27.884816,54.601442,31.173086,62.085655,54.603368,0,0,32.5774046,67.15481725,54.61519159,FALSE,221.333085,221.333085,0.4,0,-5.372219837,-6.75183965,0.002720535,-0.247326027
0.751008,30.107132,18.130189,2,0.941895,0.150635,-0.071594,0.291626,-3.25,-9.34,60.5,-0.175521,-28.736865,54.149992,31.15784,61.652275,54.154988,0,0,33.08688617,67.4959379,54.18568213,FALSE,223.4379939,223.4379939,0.4,0,-5.388809686,-7.027304128,-0.049631873,-0.314361561
0.763672,30.014236,18.134832,2,0.934875,0.148926,-0.063904,0.315918,-1.37,-10.04,57.99,3.564036,-26.862747,52.261162,31.276078,61.400721,52.282032,0,0,33.76030507,67.9377817,52.40881135,FALSE,226.1822459,226.1822459,0.4,0,-5.367353609,-7.379360871,-0.117739899,-0.405584564
0.772479,30.292892,18.120904,2,0.927185,0.147095,-0.056396,0.339844,-0.29,-9.21,57.85,5.469545,-24.859137,52.760146,31.246704,61.003049,52.754877,0,0,34.16900002,68.14973468,52.73319153,FALSE,227.586027,227.586027,0.4,0,-5.327574235,-7.607118187,-0.164835014,-0.471577524
0.784665,30.201035,18.134832,2,0.919128,0.145203,-0.049194,0.362976,0.18,-9.89,57.08,7.726989,-24.023644,52.14541,31.386174,60.854887,52.152127,0,0,34.77568846,68.49321039,52.1905046,FALSE,229.8075926,229.8075926,0.4,0,-5.247167753,-7.904960972,-0.229266917,-0.566092623
0.793505,32.061905,18.125547,2,0.910828,0.143127,-0.042175,0.384888,1.07,-9.7,55.69,9.524373,-22.019394,51.196152,32.318673,61.872602,51.206686,0,0,35.22610587,68.74830107,51.27243882,FALSE,231.4591658,231.4591658,0.4,0,-5.170916733,-8.1084712,-0.27531485,-0.636871993
0.802393,32.90007,18.120904,2,0.902588,0.14093,-0.035522,0.405212,1.36,-10.44,55.54,11.433072,-21.34415,51.080753,33.206887,62.75325,51.082141,0,0,35.70044431,69.02266385,51.09545913,FALSE,233.2271226,233.2271226,0.4,0,-5.077781848,-8.301178789,-0.320860067,-0.709796477
0.8147,32.807693,18.134832,2,0.89447,0.138428,-0.029297,0.424072,2.82,-10.13,54.27,13.095417,-18.769645,50.318982,33.75155,63.095605,50.327391,0,0,36.37581006,69.41685806,50.37855336,FALSE,235.7641783,235.7641783,0.4,0,-4.926845791,-8.548019027,-0.382423543,-0.813478016
0.823286,34.112045,18.134832,2,0.886658,0.135742,-0.02356,0.441467,3,-10.51,53.12,14.269632,-17.588326,49.277072,34.504285,63.814469,49.288647,0,0,36.83815387,69.67100302,49.36157775,FALSE,237.4286813,237.4286813,0.4,0,-4.809367635,-8.704103796,-0.424221107,-0.88754138
0.832068,34.949875,18.130189,2,0.87915,0.132812,-0.018433,0.457275,3.96,-10.56,52.76,15.541939,-15.81684,49.184204,35.324114,64.566539,49.185355,0,0,37.33370656,69.94973029,49.19781211,FALSE,239.2443515,239.2443515,0.4,0,-4.678465027,-8.85078588,-0.465882181,-0.9646249
0.844608,35.788803,18.134832,2,0.872131,0.129639,-0.013977,0.471558,4.68,-9.91,51.11,15.78679,-13.568083,47.948141,36.406926,65.48613,47.961775,0,0,38.09931854,70.41346775,48.04401588,FALSE,242.2101623,242.2101623,0.4,0,-4.482033896,-9.035029347,-0.523318509,-1.076768962
0.853487,36.999008,18.130189,2,0.865662,0.126282,-0.010315,0.484375,4.85,-9.74,50.26,16.017606,-12.295147,47.294073,37.334059,66.397164,47.301431,0,0,38.64442643,70.73175632,47.35160869,FALSE,244.2681094,244.2681094,0.4,0,-4.34083828,-9.149849157,-0.56248765,-1.15750073
0.862357,37.837082,18.125547,2,0.859741,0.122742,-0.007507,0.495728,5.14,-9.11,49.59,15.789866,-10.821367,46.927186,38.215785,67.18383,46.93131,0,0,39.20565492,71.06222274,46.95974775,FALSE,246.4023609,246.4023609,0.4,0,-4.199772142,-9.252370896,-0.600365257,-1.239114576
0.874728,37.931564,18.130189,2,0.85437,0.119019,-0.005676,0.505798,5.44,-8.48,48.28,15.341305,-9.302541,45.94091,38.885611,67.55385,45.951824,0,0,39.98555539,71.50649278,46.01907532,FALSE,249.3006197,249.3006197,0.4,0,-4.007210284,-9.376847329,-0.651129547,-1.354345605
0.883327,39.048569,18.130189,2,0.849426,0.115173,-0.004944,0.514954,5.52,-8.18,47.32,14.973163,-8.3016,45.20456,39.562765,68.077801,45.212795,0,0,40.52832893,71.80447187,45.2670497,FALSE,251.266501,251.266501,0.4,0,-3.876873229,-9.452536334,-0.685027164,-1.43530254
0.892231,40.25972,18.125547,2,0.844788,0.111267,-0.005188,0.523376,5.17,-7.3,45.96,13.751119,-7.44399,44.134272,40.573618,68.977078,44.146157,0,0,41.12634327,72.15007539,44.22117883,FALSE,253.5173327,253.5173327,0.4,0,-3.748992725,-9.5226357,-0.718977519,-1.519780006
0.904871,40.353714,18.130189,2,0.840515,0.107422,-0.006592,0.531006,4.62,-6.25,44.47,12.182565,-6.805409,42.933207,41.321364,69.366556,42.946573,0,0,41.9612451,72.60114762,43.03202032,FALSE,256.5130325,256.5130325,0.4,0,-3.585091842,-9.612691902,-0.765328934,-1.640715276
0.913717,40.353714,18.130189,2,0.836365,0.103699,-0.008972,0.538147,4.2,-5.88,44.01,11.3221,-6.633864,42.625032,41.37448,68.927576,42.628575,0,0,42.49794796,72.83996358,42.65625617,FALSE,258.1953647,258.1953647,0.4,0,-3.481130709,-9.672133806,-0.796582836,-1.72601206
0.922588,40.914139,18.139474,2,0.832458,0.100159,-0.012451,0.544861,3.59,-4.85,43.05,9.675364,-6.388271,41.896209,41.721271,68.956792,41.90428,0,0,43.03978164,73.07814867,41.95451989,FALSE,259.8808972,259.8808972,0.4,0,-3.387996457,-9.729893486,-0.82705085,-1.812069753
0.935099,41.751999,18.134832,2,0.828674,0.096802,-0.016785,0.551025,2.57,-4.29,41.63,8.222686,-6.714717,40.563102,42.604989,69.485967,40.577881,0,0,43.85186344,73.46184853,40.66985171,FALSE,262.5376663,262.5376663,0.4,0,-3.276035206,-9.811859228,-0.8687377,-1.934313187
0.943702,42.497452,18.134832,2,0.825134,0.093628,-0.021973,0.556702,1.62,-2.43,40.52,5.611509,-6.651654,39.682069,43.141796,69.736703,39.69194,0,0,44.3905999,73.68573972,39.75785179,FALSE,264.1540621,264.1540621,0.4,0,-3.216527416,-9.869354673,-0.896665458,-2.018971928
0.952592,43.244003,18.134832,2,0.821594,0.090759,-0.027832,0.562073,0.78,-1.6,38.51,3.939634,-6.794263,37.742603,43.822351,70.147316,37.764084,0,0,44.96148604,73.924631,37.89721311,FALSE,265.8758268,265.8758268,0.4,0,-3.174072585,-9.929121774,-0.925071675,-2.106976156
0.96521,43.522995,18.130189,2,0.818176,0.088196,-0.03418,0.567139,-0.41,-0.55,37.28,2.012809,-7.391202,36.490931,44.536706,70.397558,36.50496,0,0,45.78357506,74.25041673,36.59882109,FALSE,268.2690873,268.2690873,0.4,0,-3.136518622,-10.01861787,-0.964885195,-2.232826445
0.974089,44.642654,18.139474,2,0.814819,0.085938,-0.040955,0.571838,-0.74,0.51,35.54,0.388645,-7.157386,34.821252,45.2247,70.796544,34.839806,0,0,46.35823611,74.46006469,34.95762729,FALSE,269.8558263,269.8558263,0.4,0,-3.125857367,-10.08320633,-0.992687013,-2.322068494
0.98294,45.015732,18.139474,2,0.811646,0.083984,-0.047913,0.576111,-1.66,0.85,33.89,-0.708558,-7.756482,33.035537,45.731703,70.932238,33.05542,0,0,46.92323831,74.64195405,33.18299997,FALSE,271.2995312,271.2995312,0.4,0,-3.127273142,-10.14920765,-1.020360242,-2.411607042
0.995441,45.947464,18.139474,2,0.808533,0.082397,-0.05481,0.580017,-2.66,1.69,31.67,-2.234416,-8.174289,30.677401,46.746007,71.468635,30.703606,0,0,47.76724997,74.93241295,30.86963082,FALSE,273.5479402,273.5479402,0.4,0,-3.145668201,-10.24878294,-1.059569262,-2.539104682
1.004254,46.600204,18.134832,2,0.805725,0.081238,-0.061584,0.583496,-3.54,1.51,28.31,-2.663157,-8.571976,27.123829,47.292203,71.584012,27.163277,0,0,48.34137793,75.08576277,27.41120734,FALSE,274.8641168,274.8641168,0.4,0,-3.167249357,-10.32257535,-1.087387133,-2.629752373
1.013077,47.532059,18.134832,2,0.80304,0.080505,-0.067932,0.586487,-4.15,2.52,25.36,-4.030161,-8.409682,24.077577,48.063484,71.975778,24.11158,0,0,48.93468264,75.23230193,24.3333335,FALSE,276.1668891,276.1668891,0.4,0,-3.196776929,-10.39748994,-1.115462035,-2.721158941
1.025648,47.532059,18.134832,2,0.800598,0.080139,-0.073792,0.589233,-5.09,2.17,20.91,-4.068972,-8.608299,19.421335,48.661488,71.844334,19.47302,0,0,49.76947476,75.38312436,19.79818406,FALSE,277.7322656,277.7322656,0.4,0,-3.247684029,-10.50445646,-1.155968694,-2.852538125
1.034488,48.931839,18.139474,2,0.798279,0.080261,-0.078979,0.591675,-5.66,2.07,17.47,-4.151783,-8.552306,15.847494,49.454301,72.214407,15.887447,0,0,50.36457952,75.45957372,16.15059139,FALSE,278.6978374,278.6978374,0.4,0,-3.284019767,-10.58030633,-1.184838825,-2.945732776
1.046298,49.398117,18.134832,2,0.796021,0.080688,-0.083435,0.594055,-6.05,1.9,12.39,-3.976184,-7.925988,10.728261,50.275265,72.299054,10.785113,0,0,51.16744001,75.5260737,11.1442628,FALSE,279.8230305,279.8230305,0.4,0,-3.332015412,-10.67761066,-1.223906513,-3.071260776
1.055154,50.797623,18.139474,2,0.793884,0.081421,-0.087036,0.596252,-6.1,2,9.47,-3.981244,-7.344225,7.81668,51.219196,72.805407,7.849391,0,0,51.78688628,75.55606286,8.071972531,FALSE,280.5878615,280.5878615,0.4,0,-3.367250903,-10.74522716,-1.253570864,-3.166121102
1.063782,51.728836,18.130189,2,0.79187,0.082336,-0.089722,0.59845,-6.27,1.61,6.91,-3.528592,-7.058156,5.233269,52.14229,73.230863,5.262098,0,0,52.40512552,75.57872249,5.451054661,FALSE,281.3159625,281.3159625,0.4,0,-3.399648335,-10.80735903,-1.282763267,-3.259098959
1.076092,52.196793,18.134832,2,0.789917,0.083374,-0.091492,0.600586,-6.15,1.22,3.74,-2.952605,-6.322171,2.147179,53.075523,73.295529,2.181505,0,0,53.28110865,75.56959775,2.40065271,FALSE,282.1477047,282.1477047,0.4,0,-3.439540103,-10.88971494,-1.324858472,-3.392644449
1.084602,52.75737,18.144116,2,0.788086,0.084473,-0.092224,0.602783,-6.56,0.41,1.5,-2.142501,-6.390665,-0.159541,53.514589,73.027327,-0.133743,0,0,53.86837602,75.51386458,0.03687735,FALSE,282.464782,282.464782,0.4,0,-3.461219779,-10.94380806,-1.354221206,-3.485546089
1.09349,54.343002,18.139474,2,0.786255,0.085632,-0.091858,0.60498,-5.13,-0.19,-0.14,-1.098793,-4.813378,-1.412596,54.64258,73.622268,-1.398503,0,0,54.53014835,75.50072721,-1.301392237,FALSE,283.0628729,283.0628729,0.4,0,-3.475624089,-10.99359883,-1.38504854,-3.583035926
1.10609,54.156296,18.139474,2,0.784607,0.086731,-0.090576,0.607239,-5.29,-0.94,-1.99,-0.318227,-4.700547,-3.261036,55.287832,73.23773,-3.240512,0,0,55.41758813,75.39724378,-3.110691922,FALSE,283.4487931,283.4487931,0.4,0,-3.484551315,-11.05353656,-1.428897645,-3.721932878
1.114968,54.716415,18.139474,2,0.78302,0.087708,-0.088257,0.609436,-4.02,-1.74,-2.87,0.806235,-3.492231,-3.818325,55.605791,72.714844,-3.811958,0,0,56.02109301,75.2814459,-3.76403532,FALSE,283.4913109,283.4913109,0.4,0,-3.482385048,-11.0899043,-1.459823875,-3.820227612
1.123674,55.838333,18.148759,2,0.781616,0.088501,-0.085022,0.611511,-4.41,-2.41,-4.07,1.392439,-3.732843,-5.093681,56.373204,72.846632,-5.079556,0,0,56.63626962,75.1944734,-4.991670435,FALSE,283.6852948,283.6852948,0.4,0,-3.47281422,-11.12135504,-1.490099858,-3.916913224
1.136223,56.395981,18.139474,2,0.780396,0.089111,-0.081116,0.613586,-2.61,-3.49,-5.95,2.885009,-1.848666,-6.531058,57.300057,72.780895,-6.515063,0,0,57.52250034,75.05412595,-6.412956024,FALSE,283.892118,283.892118,0.4,0,-3.445975373,-11.15637622,-1.533511803,-4.056694849
1.144767,57.610184,18.144116,2,0.779297,0.089355,-0.07666,0.615479,-1.35,-4.16,-6.94,3.802121,-0.596952,-7.244196,58.101778,72.984405,-7.236162,0,0,58.13698408,74.96336284,-7.180423177,FALSE,284.067406,284.067406,0.4,0,-3.417407953,-11.1668239,-1.562832177,-4.15205956
1.153846,58.449905,18.139474,2,0.778381,0.089233,-0.071838,0.617249,-0.47,-5.1,-7.49,4.871572,0.126494,-7.653927,58.965499,73.173897,-7.649323,0,0,58.79969624,74.87442702,-7.617599735,FALSE,284.299902,284.299902,0.4,0,-3.378033724,-11.16895955,-1.593680084,-4.253452849
1.166459,59.102921,18.134832,2,0.777588,0.088684,-0.066711,0.618896,1,-4.53,-8.51,4.587458,1.8386,-8.337584,59.967558,73.167832,-8.329999,0,0,59.71260777,74.73630208,-8.282346733,FALSE,284.5449219,284.5449219,0.4,0,-3.318380351,-11.15656668,-1.635911019,-4.39424878
1.175312,60.034866,18.125547,2,0.776978,0.087891,-0.061401,0.620361,1.09,-5.26,-9.1,5.246236,1.844995,-8.985612,60.65409,73.146443,-8.978387,0,0,60.35763073,74.64071454,-8.93165741,FALSE,284.7279337,284.7279337,0.4,0,-3.274851505,-11.14026125,-1.66509596,-4.492945689
1.184009,60.503738,18.139474,2,0.776489,0.086731,-0.056274,0.621643,2.17,-4.78,-9.56,4.944978,3.016528,-9.241379,61.20289,72.951581,-9.238481,0,0,60.98236778,74.5307388,-9.217617128,FALSE,284.8213136,284.8213136,0.4,0,-3.230535011,-11.11912092,-1.693384633,-4.589740612
1.196479,61.155807,18.125547,2,0.776001,0.085327,-0.051453,0.622864,3.68,-5.07,-9.98,5.486881,4.424133,-9.44325,62.084544,72.800301,-9.440993,0,0,61.87464352,74.36677796,-9.425939431,FALSE,284.9217945,284.9217945,0.4,0,-3.16549237,-11.07272839,-1.733263864,-4.728106793
1.205091,61.996872,18.130189,2,0.775452,0.083862,-0.047058,0.624023,4.03,-5.85,-10.22,6.257563,4.586217,-9.732358,62.66021,72.641467,-9.729147,0,0,62.48986751,74.25215056,-9.708849536,FALSE,284.9837467,284.9837467,0.4,0,-3.114920794,-11.03392983,-1.760307323,-4.823298063
1.214175,62.932205,18.139474,2,0.774902,0.082275,-0.043274,0.625183,3.7,-5.73,-10.54,6.009071,4.299653,-10.149646,63.477053,72.752733,-10.145012,0,0,63.15286557,74.14883102,-10.11582805,FALSE,285.1482538,285.1482538,0.4,0.021996545,-3.059205742,-10.99357021,-1.788350206,-4.923346968
1.226776,63.212753,18.144116,2,0.774231,0.080688,-0.040222,0.626465,4.54,-5.59,-11.06,5.991404,5.184306,-10.555176,64.239517,72.428334,-10.550656,0,0,64.04425657,73.96436842,-10.52146919,FALSE,285.1501368,285.1501368,0.4,0.05142766,-2.983596749,-10.93381652,-1.826422883,-5.061500468
1.235617,64.518875,18.134832,2,0.773438,0.079163,-0.038086,0.627808,4.56,-4.44,-11.49,4.82567,5.473005,-10.922127,65.041844,72.573993,-10.918034,0,0,64.68915838,73.85954974,-10.89138849,FALSE,285.2898612,285.2898612,0.4,0.078388833,-2.935779874,-10.88670588,-1.852589487,-5.157958088
1.244343,64.707321,18.144116,2,0.772461,0.077576,-0.037048,0.629211,4.65,-4.73,-11.71,5.107516,5.515039,-11.163173,65.481103,72.221242,-11.160472,0,0,65.30323166,73.72426264,-11.14232167,FALSE,285.2522104,285.2522104,0.4,0.096933521,-2.892441383,-10.83876504,-1.878018017,-5.252746317
1.256831,66.294266,18.139474,2,0.77124,0.075989,-0.037048,0.63092,4.11,-3.25,-12.28,3.532082,5.364997,-11.704513,66.853958,72.656828,-11.698518,0,0,66.22646567,73.5892074,-11.66138161,FALSE,285.5251732,285.5251732,0.4,0.13519277,-2.838495733,-10.7708301,-1.913801988,-5.387676629
1.265473,66.387466,18.134832,2,0.769836,0.074463,-0.038147,0.632751,3.37,-3.32,-12.54,3.469815,4.682376,-12.069303,67.210374,72.151668,-12.065218,0,0,66.83916927,73.45760574,-12.03800723,FALSE,285.5045592,285.5045592,0.4,0.163278435,-2.808240536,-10.7274154,-1.938201536,-5.480570548
1.274534,67.042007,18.139474,2,0.768127,0.073059,-0.040222,0.634888,3.01,-2.03,-12.83,2.168158,4.64157,-12.310461,67.766201,71.913516,-12.307758,0,0,67.48209753,73.31870963,-12.28955832,FALSE,285.4794171,285.4794171,0.4,0.182402368,-2.7826977,-10.68517326,-1.963531281,-5.577580281
1.287145,67.228958,18.139474,2,0.766235,0.071777,-0.043213,0.637085,1.83,-1.53,-13.28,1.505798,3.695012,-12.889066,68.360127,71.360984,-12.88266,0,0,68.3488994,73.08675939,-12.84307172,FALSE,285.2313816,285.2313816,0.4,0.224538615,-2.75953157,-10.63260694,-1.998477808,-5.711999544
1.295821,67.789291,18.139474,2,0.76416,0.070618,-0.046997,0.639404,1.8,-1.02,-13.42,1.075761,3.826159,-12.983814,68.646943,70.751863,-12.982699,0,0,68.92508719,72.89827936,-12.97301625,FALSE,284.9024195,284.9024195,0.4,0.23537083,-2.748332767,-10.5999801,-2.022370923,-5.804106507
1.304666,67.790848,18.148759,2,0.762085,0.069641,-0.051392,0.641663,0.79,-0.46,-13.48,0.439611,3.01009,-13.164047,68.776823,69.98631,-13.162049,0,0,69.48401703,72.66931023,-13.14939111,FALSE,284.3626758,284.3626758,0.4,0.25006389,-2.741631035,-10.56974679,-2.046650288,-5.897729624
1.317066,69.097519,18.139474,2,0.759949,0.068848,-0.056274,0.64386,-0.45,0.67,-13.95,-0.7785,2.141904,-13.786227,69.829699,70.046129,-13.779349,0,0,70.32197247,72.42215376,-13.7373689,FALSE,284.0158341,284.0158341,0.4,0.296104219,-2.743732146,-10.53780443,-2.08065954,-6.028596441
1.326029,69.471481,18.139474,2,0.757812,0.068237,-0.061462,0.645996,-1.38,1.36,-14.25,-1.489628,1.478027,-14.22719,70.248739,69.61103,-14.222255,0,0,70.89835181,72.2018825,-14.18961088,FALSE,283.5373109,283.5373109,0.4,0.332218839,-2.753896762,-10.52158171,-2.105297164,-6.12297408
1.337977,69.844955,18.139474,2,0.755676,0.06781,-0.066833,0.64801,-1.48,1.82,-14.05,-1.83836,1.495598,-14.045958,70.844749,69.133649,-14.0479,0,0,71.66733013,71.90768223,-14.05697909,FALSE,282.8988437,282.8988437,0.4,0.324799471,-2.773778162,-10.50381727,-2.138319494,-6.248579814
1.346911,70.498672,18.134832,2,0.753479,0.067627,-0.072205,0.649963,-2.67,2.39,-14.11,-2.455644,0.522052,-14.339814,71.260673,68.708646,-14.336597,0,0,72.22183397,71.66457878,-14.31811489,FALSE,282.2916689,282.2916689,0.4,0.34711361,-2.792959478,-10.49480443,-2.163186111,-6.342380657
1.355745,70.777878,18.130189,2,0.751343,0.067688,-0.077454,0.651855,-3.76,2.14,-14.09,-2.24163,-0.485956,-14.559683,71.587625,68.210917,-14.557224,0,0,72.754479,71.40413844,-14.54114988,FALSE,281.5811348,281.5811348,0.4,0.366949003,-2.813707337,-10.49464499,-2.187950758,-6.435091055
1.367733,71.246201,18.134832,2,0.749329,0.067871,-0.082458,0.653503,-4.44,2.61,-14.02,-2.683795,-1.005033,-14.658536,72.20623,67.788807,-14.65742,0,0,73.49517036,71.07599403,-14.64953016,FALSE,280.7574781,280.7574781,0.4,0.378828886,-2.843230335,-10.50358198,-2.221858443,-6.560954428
1.376333,72.462662,18.139474,2,0.747498,0.068359,-0.087036,0.655029,-3.29,2.51,-13.97,-2.338066,0.170593,-14.38019,72.937542,67.880979,-14.383245,0,0,74.02673849,70.84405491,-14.40085382,FALSE,280.1847026,280.1847026,0.4,0.36171991,-2.864824337,-10.50717008,-2.246403078,-6.651300662
1.385139,72.836227,18.139474,2,0.745667,0.069092,-0.091064,0.656433,-4.84,2.78,-14.37,-2.696989,-1.120953,-15.136723,73.476124,67.672307,-15.12842,0,0,74.56293784,70.60024237,-15.08026705,FALSE,279.5612636,279.5612636,0.4,0.418124879,-2.886993684,-10.51135451,-2.271728333,-6.743845225
1.39753,73.491684,18.144116,2,0.743958,0.069824,-0.094482,0.657837,-4.98,1.86,-14.13,-1.737667,-1.352234,-14.935508,74.322532,67.498325,-14.937634,0,0,75.34261752,70.28712778,-14.94661396,FALSE,278.8535728,278.8535728,0.4,0.411160235,-2.914468596,-10.52667714,-2.307671292,-6.87418635
1.406396,73.955948,18.130189,2,0.742371,0.070679,-0.097168,0.659119,-4.88,2.38,-14.26,-2.180891,-1.097332,-15.062063,74.707359,67.050627,-15.060692,0,0,75.86841359,70.02470148,-15.05320575,FALSE,278.1344364,278.1344364,0.4,0.422843968,-2.931839563,-10.53753607,-2.333587976,-6.967564008
1.415264,74.706314,18.139474,2,0.740906,0.071594,-0.099182,0.6604,-4.71,1.4,-14.16,-1.156819,-1.020596,-14.908738,75.300773,66.91762,-14.910413,0,0,76.40319204,69.77673919,-14.9198216,FALSE,277.4943051,277.4943051,0.4,0.415021092,-2.946638969,-10.54692696,-2.35965315,-7.061052517
1.42783,75.640732,18.139474,2,0.739441,0.072693,-0.100464,0.661682,-4.87,1.75,-14.27,-1.497927,-1.063997,-15.06771,76.33783,66.97445,-15.065977,0,0,77.19962629,69.48250771,-15.05636401,FALSE,276.8983903,276.8983903,0.4,0.429727575,-2.963318739,-10.56002446,-2.396785414,-7.193667492
1.436397,76.199966,18.130189,2,0.738098,0.073669,-0.101013,0.663025,-4.5,0.59,-14.22,-0.306718,-0.821377,-14.900946,76.830932,66.726879,-14.902765,0,0,77.71754182,69.25060382,-14.9128697,FALSE,276.3202914,276.3202914,0.4,0.420778093,-2.971048935,-10.56810046,-2.422205278,-7.284169815
1.445389,76.576248,18.139474,2,0.736755,0.074585,-0.100891,0.664429,-3.68,1.34,-14.2,-0.984351,0.058867,-14.697133,77.282961,66.402304,-14.699399,0,0,78.25493063,69.00324439,-14.71368436,FALSE,275.6899884,275.6899884,0.4,0.407257656,-2.976853582,-10.5715287,-2.448947048,-7.379213588
1.457967,77.416489,18.134832,2,0.735413,0.075378,-0.100159,0.665955,-3.55,0.82,-14.11,-0.483507,0.106378,-14.56442,78.194546,66.316162,-14.565907,0,0,79.03922445,68.70726719,-14.57587161,FALSE,275.0789623,275.0789623,0.4,0.399229624,-2.986084941,-10.57048948,-2.486447968,-7.51217574
1.466804,77.885086,18.139474,2,0.734009,0.07605,-0.098877,0.667603,-2.56,0.08,-14.15,0.309494,0.985168,-14.342816,78.600087,65.919566,-14.345274,0,0,79.56094166,68.46463508,-14.36069607,FALSE,274.4583886,274.4583886,0.4,0.383911399,-2.986853817,-10.56566648,-2.512839398,-7.605565846
1.475674,78.259384,18.139474,2,0.732605,0.076477,-0.097107,0.669312,-2.81,-0.11,-14.13,0.434041,0.695951,-14.38374,78.986991,65.53015,-14.383316,0,0,80.07593515,68.21436163,-14.38197208,FALSE,273.7965932,273.7965932,0.4,0.38854176,-2.983556239,-10.55821072,-2.539318167,-7.699250241
1.488134,78.91362,18.134832,2,0.73114,0.076782,-0.095032,0.671204,-2.6,-0.97,-14.09,1.261525,0.780974,-14.283828,79.759793,65.298821,-14.284925,0,0,80.82748386,67.90420354,-14.29135766,FALSE,273.0918812,273.0918812,0.4,0.384328029,-2.972992863,-10.54900947,-2.576427468,-7.830748223
1.496744,80.033493,18.125547,2,0.729614,0.077026,-0.092651,0.673157,-2.45,-1.15,-14.2,1.405766,0.901571,-14.358826,80.480537,65.412553,-14.358012,0,0,81.34519621,67.69193621,-14.35364983,FALSE,272.6143115,272.6143115,0.4,0.392117976,-2.961510175,-10.54176612,-2.601975503,-7.921544012
1.505627,80.876602,18.130189,3,0.728149,0.077209,-0.090088,0.67511,-2.02,-1.63,-14.09,1.858998,1.215535,-14.153911,81.290217,65.586581,-14.15616,0,0,81.89455429,67.49573841,-14.169235,FALSE,272.2447281,272.2447281,0.4,0.378393221,-2.947009726,-10.53236299,-2.628218194,-8.015144756
1.518263,80.785355,18.144116,3,0.726685,0.077393,-0.087524,0.676941,-1.78,-2,-13.96,2.186474,1.354273,-13.979787,81.824753,65.044817,-13.981731,0.024,0.024,82.65142542,67.18903368,-13.9943215,FALSE,270.4272367,271.567004,0.4144,0.366533798,-2.921450434,-10.51612694,-2.665295126,-8.148129115
1.527136,81.346939,18.144116,3,0.725281,0.077332,-0.085022,0.678772,-1.27,-1.85,-13.88,2.019136,1.802112,-13.797268,82.123496,64.504865,-13.799301,0.042,0.042,83.15539786,66.94184131,-13.81238599,FALSE,268.956066,270.9164825,0.4252,0.353190841,-2.902792245,-10.50212364,-2.691134378,-8.241376584
1.539034,82.747665,18.130189,3,0.723938,0.077209,-0.082581,0.680542,-0.84,-2.97,-13.77,3.113222,2.086552,-13.604916,83.252847,64.824467,-13.607058,0.066,0.066,83.8925827,66.69901312,-13.62083314,FALSE,267.4982207,270.521082,0.4396,0.338740316,-2.872259847,-10.47898998,-2.725490163,-8.366193229
1.547984,83.123672,18.139474,3,0.722595,0.076965,-0.080261,0.682312,-0.62,-1.94,-13.95,2.055163,2.365158,-13.745339,83.757392,64.590269,-13.743815,0.082,0.082,84.42302315,66.48824915,-13.73578691,FALSE,266.3694304,270.0697282,0.4492,0.35117428,-2.849131325,-10.45906858,-2.751093389,-8.459891041
1.556576,83.403732,18.134832,3,0.721252,0.076538,-0.078125,0.68396,-0.58,-2.84,-13.95,2.91725,2.316075,-13.752407,84.107181,64.200283,-13.752313,0.1,0.1,84.91724383,66.26755398,-13.75113192,FALSE,265.0957977,269.5371387,0.46,0.354899071,-2.827769838,-10.438958,-2.775481356,-8.549668963
1.568639,84.434372,18.139474,3,0.71991,0.075989,-0.076233,0.685669,-0.47,-1.9,-13.87,1.952216,2.417427,-13.658427,85.070383,64.269423,-13.659462,0.124,0.124,85.6536267,66.0182128,-13.66553935,FALSE,263.7115977,269.1149819,0.4744,0.349818993,-2.798399654,-10.41040788,-2.809415597,-8.675421914
1.577453,84.90123,18.134832,3,0.718506,0.075317,-0.074707,0.687378,-0.34,-2.56,-13.76,2.595039,2.458647,-13.536151,85.538096,64.007164,-13.53751,0.142,0.142,86.17064918,65.81141443,-13.5460777,FALSE,262.5777413,268.672395,0.4852,0.341113747,-2.778359901,-10.38891903,-2.833992377,-8.767084547
1.586155,85.180832,18.130189,3,0.71698,0.074463,-0.073914,0.689209,-0.26,-1.84,-13.88,1.87504,2.570551,-13.637667,85.887893,63.618064,-13.636563,0.16,0.16,86.66774159,65.59286802,-13.63064027,FALSE,261.3961888,268.1566167,0.496,0.351162942,-2.758910588,-10.36703699,-2.858085041,-8.857393712
1.598782,85.836563,18.134832,3,0.715332,0.073547,-0.073547,0.690979,-0.37,-2.27,-13.78,2.305266,2.41097,-13.566514,86.660328,63.41002,-13.567286,0.184,0.184,87.41463555,65.31263922,-13.5714338,FALSE,259.9885266,267.6066715,0.5104,0.348694203,-2.732518226,-10.33558615,-2.892755177,-8.988099723
1.60764,86.023849,18.134832,3,0.713562,0.072571,-0.073547,0.692932,-0.2,-1.43,-13.8,1.484171,2.59848,-13.548803,86.851421,62.735569,-13.549007,0.202,0.202,87.89765728,65.06476709,-13.55053926,FALSE,258.7218064,266.9443957,0.5212,0.349404287,-2.715734809,-10.3133993,-2.916885489,-9.07955408
1.616459,86.023849,18.134832,3,0.711792,0.071716,-0.073914,0.694763,-0.07,-1.64,-13.78,1.714538,2.713752,-13.501026,86.925084,61.979149,-13.501555,0.22,0.22,88.35324219,64.78750728,-13.50482468,FALSE,257.3284792,266.1209241,0.532,0.348094424,-2.701630102,-10.28997501,-2.94077336,-9.170404659
1.628802,85.554337,18.130189,3,0.710022,0.07074,-0.074585,0.696655,-0.32,-1.07,-13.9,1.166178,2.506911,-13.66796,86.893433,60.814397,-13.666126,0.196,0.196,88.97780604,64.38606019,-13.65544429,FALSE,257.159827,264.8973735,0.5176,0.366816272,-2.683851763,-10.25775569,-2.974009861,-9.297214979
1.637612,86.023849,18.134832,3,0.708252,0.069824,-0.075562,0.698425,-0.48,-1.06,-13.78,1.184533,2.33204,-13.57943,86.923296,59.943866,-13.580386,0.178,0.178,89.37471659,64.03760949,-13.58526186,FALSE,256.7484558,263.693885,0.5068,0.364051336,-2.673496881,-10.23644011,-2.997608982,-9.387491911
1.646388,85.930984,18.139474,3,0.706482,0.068909,-0.076843,0.700195,0.11,-0.32,-14.11,0.491238,2.99669,-13.783527,86.874544,59.063623,-13.781289,0.158,0.158,89.74363355,63.66015472,-13.76831611,FALSE,256.2458883,262.3331731,0.4948,0.386243217,-2.666143598,-10.21305764,-3.021039324,-9.477224307
1.666891,86.772995,18.134832,3,0.70282,0.067383,-0.0802,0.703613,-0.6,-0.05,-14.11,0.304502,2.341925,-13.923982,88.023068,58.704738,-13.922409,0.118,0.118,90.83487658,63.08856299,-13.91203946,FALSE,256.3429028,260.8132117,0.4708,0.407553225,-2.657986069,-10.15832883,-3.07561964,-9.686061576
1.676315,87.708511,18.134832,3,0.70105,0.066772,-0.082214,0.7052,-1.23,-0.32,-14.19,0.629284,1.772354,-14.122115,88.389427,58.191543,-14.119914,0.1,0.1,91.24553242,62.70709112,-14.10599803,FALSE,255.7509397,259.4866668,0.46,0.432032616,-2.65358607,-10.13894235,-3.100647768,-9.781702318
1.685938,88.270462,18.134832,3,0.699402,0.066284,-0.08429,0.706665,-0.81,0.8,-14.1,-0.447684,2.189397,-13.96826,88.879305,57.946788,-13.969931,0.078,0.078,91.67243334,62.33194326,-13.97882731,FALSE,255.3325764,258.2095202,0.4468,0.42430519,-2.652712301,-10.11988038,-3.126179022,-9.879177643
1.700245,89.391861,18.125547,3,0.697815,0.065857,-0.086487,0.708008,-1.72,1.11,-14.08,-0.692853,1.326024,-14.149154,90.006594,58.163749,-14.147179,0.054,0.054,92.40532858,61.91593793,-14.13608658,FALSE,255.0948698,257.0579078,0.4324,0.446247777,-2.660871133,-10.09473282,-3.164189741,-10.02378288
1.70888,89.768661,18.134832,3,0.696289,0.065613,-0.088623,0.709229,-1.47,0.67,-14.12,-0.209116,1.6206,-14.117864,90.36933,57.810993,-14.118187,0.036,0.036,92.7828093,61.58022717,-14.11926207,FALSE,254.6259126,255.9186071,0.4216,0.449372099,-2.664765384,-10.08201077,-3.187183177,-10.11089597
1.717465,90.889175,18.125547,3,0.695007,0.065491,-0.090698,0.710205,-1.4,1.42,-14.02,-0.920022,1.692368,-14.029477,91.166315,58.101645,-14.030455,0.018,0.018,93.19192186,61.29745518,-14.03636534,FALSE,254.4128113,255.0529255,0.4108,0.444803215,-2.669612209,-10.06778986,-3.210080993,-10.19738899
1.729668,90.799393,18.139474,3,0.693909,0.065491,-0.092651,0.71106,-2.59,0.99,-13.77,-0.42735,0.52187,-14.030184,91.661418,57.668471,-14.030187,0,0,93.78387645,60.91513073,-14.03065828,FALSE,253.9254127,253.9254127,0.4,0.449796013,-2.677833199,-10.05427968,-3.242708431,-10.3201638
1.738155,92.387772,18.125547,3,0.692749,0.065613,-0.094421,0.711914,-1.98,1.05,-13.77,-0.471376,1.151201,-13.895618,92.571948,58.158399,-13.897101,0.015625,0.015625,94.20642357,60.66886127,-13.90597832,FALSE,252.7051297,253.2429305,0.409375,0.440059837,-2.681646943,-10.04718001,-3.265451385,-10.40546434
1.750051,92.482742,18.130189,3,0.69165,0.065857,-0.095947,0.71283,-2.05,1.41,-13.55,-0.810894,1.057226,-13.711962,93.211062,57.930199,-13.714002,0.015625,0.015625,94.80665226,60.33995436,-13.72684699,FALSE,251.8420738,252.3704765,0.409375,0.425414632,-2.689273885,-10.03404428,-3.297397622,-10.52490746
1.758838,94.073441,18.125547,3,0.690552,0.066162,-0.097351,0.713684,-2.58,0.94,-13.63,-0.296124,0.603837,-13.887582,94.220185,58.524536,-13.885669,0.033625,0.033625,95.27434883,60.13539178,-13.8752504,FALSE,250.8050111,251.9240764,0.420175,0.444541984,-2.694137568,-10.0267464,-3.32104964,-10.61304455
1.767717,95.012711,18.134832,3,0.689514,0.066589,-0.09845,0.714478,-2.81,1.46,-13.52,-0.79523,0.368168,-13.858223,95.197651,58.988027,-13.858526,0.053625,0.053625,95.76888175,59.95982594,-13.85952935,FALSE,249.8770304,251.6352171,0.432175,0.445419879,-2.698982634,-10.02243119,-3.344992397,-10.70205287
1.78001,95.575089,18.134832,3,0.688477,0.067017,-0.099426,0.715271,-3.2,0.71,-13.44,-0.019635,0.019958,-13.8339,96.140657,59.084773,-13.834172,0.075625,0.075625,96.45924413,59.72769175,-13.8358663,FALSE,248.857369,251.2913906,0.445375,0.446265853,-2.703991202,-10.02004557,-3.378201776,-10.82524395
1.788847,96.136948,18.134832,3,0.687317,0.067505,-0.100159,0.716248,-2.1,1.07,-13.49,-0.418355,1.110489,-13.64283,96.660102,58.961102,-13.644938,0.093625,0.093625,96.94495866,59.54955155,-13.65763978,FALSE,248.0146599,250.9847244,0.456175,0.429065096,-2.705926461,-10.01505069,-3.402105497,-10.91376903
1.797451,97.261307,18.134832,3,0.686096,0.067993,-0.100647,0.717285,-2.61,0.51,-13.45,0.165221,0.644179,-13.694242,97.514586,59.29263,-13.693699,0.111625,0.111625,97.44729691,59.41923624,-13.69143387,FALSE,247.4087199,250.908107,0.466975,0.434734226,-2.707015443,-10.00750211,-3.425391973,-10.99990605
1.809851,97.730301,18.139474,3,0.684814,0.068542,-0.100891,0.718445,-1.79,0.93,-13.38,-0.302556,1.420365,-13.453046,98.373864,59.276657,-13.455698,0.135625,0.135625,98.16087924,59.2198036,-13.47133515,FALSE,246.5572476,250.7368108,0.481375,0.412849089,-2.70786692,-9.994701934,-3.458964244,-11.12391971
1.818363,98.478226,18.130189,3,0.683533,0.069031,-0.100952,0.719604,-3.11,-0.02,-13.38,0.711501,0.19146,-13.716926,98.938518,59.247894,-13.714048,0.153625,0.153625,98.65539547,59.09278781,-13.69808424,FALSE,245.9887262,250.6684876,0.492175,0.440303846,-2.706126451,-9.987842007,-3.4820062,-11.20896542
1.827378,98.945206,18.125547,3,0.682251,0.069458,-0.100891,0.720764,-1.84,0.5,-13.39,0.113139,1.408304,-13.451076,99.475959,59.131554,-13.453974,0.171625,0.171625,99.17579274,58.95371303,-13.4700265,FALSE,245.4085867,250.5732616,0.502975,0.416435433,-2.702409386,-9.980631071,-3.506385175,-11.29897331
1.839993,98.9478,18.134832,3,0.680908,0.069885,-0.100647,0.722046,-2.4,0.12,-13.26,0.510664,0.856781,-13.439016,99.914307,58.585104,-13.439181,0.195625,0.195625,99.87100469,58.72001656,-13.44139514,FALSE,244.4585957,250.2355471,0.517375,0.416473086,-2.698474748,-9.966344047,-3.540451252,-11.42478886
1.848837,99.416855,18.139474,3,0.679443,0.07019,-0.100342,0.72345,-1.59,-0.05,-13.22,0.616208,1.642394,-13.199317,100.142774,58.040561,-13.20196,0.213625,0.213625,100.3424537,58.53781341,-13.21788927,FALSE,243.6852697,249.9030215,0.528175,0.393276734,-2.69349172,-9.955292695,-3.564294527,-11.51288234
1.857657,99.979446,18.139474,3,0.677979,0.070496,-0.099976,0.724854,-2.52,-0.2,-13.26,0.820263,0.760194,-13.452422,100.559649,57.798074,-13.449662,0.233625,0.233625,100.815638,58.36410912,-13.43442863,FALSE,242.9088427,249.6108449,0.540175,0.420759182,-2.687156883,-9.944697282,-3.588023188,-11.60064129
1.870133,100.26207,18.144116,3,0.676453,0.070801,-0.099548,0.726257,-2.23,-0.52,-13.3,1.10836,1.071175,-13.407344,101.107008,57.417986,-13.407811,0.255625,0.255625,101.480298,58.11263233,-13.40942196,FALSE,241.9759675,249.1694077,0.553375,0.421480451,-2.675126133,-9.933273202,-3.621473109,-11.72464007
1.878726,101.00914,18.134832,3,0.674988,0.071106,-0.099182,0.727661,-1.65,-0.16,-13.36,0.695506,1.624345,-13.345989,101.543056,57.21957,-13.34667,0.25,0.25,101.9320762,57.93441731,-13.35085559,FALSE,241.8628307,248.8387222,0.55,0.41717733,-2.667375823,-9.921691901,-3.644427169,-11.80994693
1.887823,100.917191,18.139474,3,0.673584,0.071289,-0.098816,0.729004,-1.6,-0.62,-13.38,1.139958,1.709201,-13.332218,101.700892,56.631232,-13.332377,0.23,0.23,102.383948,57.71334318,-13.33364789,FALSE,241.9510285,248.3215792,0.538,0.41833655,-2.659027215,-9.906529267,-3.668654313,-11.90013559
1.900347,101.384262,18.134832,3,0.672241,0.071411,-0.098389,0.730286,-1.3,-0.15,-13.38,0.635563,1.960762,-13.284894,102.225285,56.235924,-13.285418,0.206,0.206,103.0218857,57.43389054,-13.28863443,FALSE,242.0869695,247.737212,0.5236,0.417021158,-2.647908902,-9.883547958,-3.701886347,-12.02406106
1.909215,101.47673,18.130189,3,0.670776,0.071472,-0.098145,0.731628,-2.4,-0.61,-13.51,1.188768,0.962869,-13.649591,102.288317,55.46965,-13.645578,0.188,0.188,103.4310413,57.18244726,-13.62189839,FALSE,241.9428448,247.0490727,0.5128,0.461000727,-2.639819819,-9.870584579,-3.725332136,-12.11165088
1.917987,102.043594,18.148759,3,0.669373,0.071472,-0.0979,0.732971,-0.86,-0.53,-13.64,0.966625,2.475726,-13.41665,102.632753,55.165626,-13.419173,0.17,0.17,103.8408431,56.94130137,-13.4323967,FALSE,241.8343173,246.4087613,0.502,0.441801314,-2.630366265,-9.855502901,-3.748447172,-12.1981695
1.930463,102.134537,18.134832,3,0.66803,0.071472,-0.097778,0.734253,-0.94,-0.31,-13.62,0.749744,2.374677,-13.426969,103.030839,54.641523,-13.426883,0.146,0.146,104.4327488,56.61621028,-13.42738545,FALSE,241.7099098,245.5885108,0.4876,0.44627131,-2.619659555,-9.825246087,-3.781196833,-12.32093801
1.939303,102.416702,18.139474,3,0.666809,0.07135,-0.097717,0.735352,-1.94,-0.97,-13.61,1.50537,1.46443,-13.6208,103.156432,53.994383,-13.618663,0.128,0.128,104.8108282,56.33440399,-13.60596124,FALSE,241.3857498,244.7457529,0.4768,0.472998902,-2.609691951,-9.808277234,-3.804310567,-12.40771819
1.95119,103.354111,18.139474,3,0.665771,0.071228,-0.097778,0.736267,-0.71,-0.42,-13.53,0.833398,2.584746,-13.280273,103.912182,53.986553,-13.284002,0.104,0.104,105.3761115,56.03419165,-13.30525987,FALSE,241.3157066,244.0138625,0.4624,0.440209104,-2.595791484,-9.784210957,-3.835249358,-12.52416614
1.96009,103.634232,18.134832,3,0.664856,0.071045,-0.097961,0.737061,-2.31,-0.42,-13.64,1.009919,1.067022,-13.762368,104.230626,53.627871,-13.757096,0.088,0.088,105.7656881,55.77013807,-13.72729863,FALSE,241.008944,243.2654315,0.4528,0.498045491,-2.587588723,-9.767960589,-3.8583154,-12.6111733
1.968935,104.476639,18.130189,3,0.664185,0.070801,-0.098206,0.737671,-0.71,-0.12,-13.51,0.546888,2.553976,-13.27465,104.846813,53.696936,-13.279967,0.068,0.068,106.1723572,55.53415853,-13.30937727,FALSE,240.9297404,242.6574269,0.4408,0.44870008,-2.580703744,-9.751946725,-3.881172173,-12.69750009
1.981036,105.416855,18.139474,3,0.663757,0.070557,-0.098572,0.738037,-2.49,-0.22,-13.43,0.848291,0.828879,-13.609054,105.826274,53.94146,-13.605428,0.046,0.046,106.7741364,55.27999952,-13.58606279,FALSE,241.0116653,242.1688569,0.4276,0.488639889,-2.572262213,-9.731478761,-3.912350194,-12.81538456
1.989608,105.697037,18.134832,3,0.663391,0.070251,-0.09906,0.738342,-0.94,0.15,-13.16,0.318723,2.228889,-13.000849,106.213156,53.721103,-13.007512,0.028,0.028,107.1725385,55.06381735,-13.04574668,FALSE,240.9436176,241.641883,0.4168,0.422014773,-2.567260391,-9.718373167,-3.934378188,-12.89874662
1.998391,106.63475,18.134832,3,0.662964,0.070007,-0.099609,0.738647,-2.25,0.06,-13.11,0.565895,0.967785,-13.254466,106.928267,53.917443,-13.251745,0.01,0.01,107.6064735,54.8835792,-13.23845304,FALSE,241.0580182,241.3057538,0.406,0.450089752,-2.563375591,-9.704334974,-3.956909376,-12.98404145
2.010906,107.572037,18.134832,3,0.662598,0.069641,-0.100159,0.739014,-1.76,0.2,-12.9,0.38347,1.380719,-12.941967,107.975508,54.212178,-12.945381,0.034,0.034,108.2573896,54.67141174,-12.96471345,FALSE,240.2252179,241.0518923,0.4204,0.417373732,-2.55743494,-9.68963921,-3.988952847,-13.10539924
2.019803,107.949997,18.144116,3,0.662109,0.069336,-0.100769,0.73938,-2.28,0.31,-13.03,0.354069,0.905591,-13.19584,108.442484,54.072855,-13.19308,0.046875,0.046875,108.7049579,54.50470324,-13.17810795,FALSE,239.665149,240.7898411,0.428125,0.448336209,-2.554153998,-9.67946856,-4.011691751,-13.19156272
2.028661,108.698166,18.134832,3,0.661621,0.069031,-0.10144,0.739685,-1.49,0.13,-12.9,0.456257,1.663207,-12.871369,109.068949,54.154054,-12.874915,0.066875,0.066875,109.1636906,54.35679665,-12.89490205,FALSE,239.0373573,240.6199514,0.440125,0.412875812,-2.550565064,-9.668091353,-4.034300552,-13.27725306
2.04115,109.543076,18.139474,3,0.661133,0.068726,-0.102112,0.740051,-1.79,0.18,-12.91,0.459221,1.379007,-12.953438,110.019481,54.334806,-12.952573,0.088875,0.088875,109.8270837,54.17632077,-12.94894712,FALSE,238.4481446,240.5175326,0.453325,0.422912727,-2.544848361,-9.649094248,-4.066118861,-13.39787922
2.049725,110.195663,18.125547,3,0.660706,0.06842,-0.102783,0.740417,-1.58,0.67,-12.87,-0.035187,1.527946,-12.893655,110.587297,54.376429,-12.894304,0.106875,0.106875,110.2865608,54.05916688,-12.89789702,FALSE,238.0202333,240.4806214,0.464125,0.417839875,-2.543030316,-9.636630687,-4.08793314,-13.48056677
2.058598,110.951797,18.144116,3,0.660217,0.068054,-0.103394,0.740845,-1.87,0.32,-12.85,0.363751,1.286083,-12.920365,111.28015,54.535886,-12.920078,0.126875,0.126875,110.7746716,53.95663267,-12.91864125,FALSE,237.6455828,240.5347621,0.476125,0.422247124,-2.541572641,-9.624146247,-4.110490982,-13.56601721
2.071149,112.354965,18.130189,3,0.659546,0.067688,-0.104065,0.741333,-2.4,0.64,-12.87,0.130141,0.752441,-13.085232,112.587424,55.144269,-13.083413,0.150875,0.150875,111.4946347,53.85297485,-13.07245112,FALSE,237.4211332,240.8164504,0.490525,0.444846715,-2.538473222,-9.61135349,-4.142370809,-13.68672959
2.080053,112.264481,18.144116,3,0.658752,0.067383,-0.104736,0.742004,-1.74,0.57,-12.81,0.135588,1.389008,-12.86472,112.89017,54.750117,-12.86713,0.166875,0.166875,111.9876609,53.75547971,-12.88065715,FALSE,237.1781869,240.8976732,0.500125,0.420215064,-2.537290197,-9.601819759,-4.164968108,-13.77226663
2.088909,112.73259,18.139474,3,0.657898,0.067017,-0.105347,0.742676,-2.16,1.02,-12.87,-0.237592,0.954103,-13.052819,113.283302,54.513547,-13.050773,0.186875,0.186875,112.4761727,53.65856472,-13.03961072,FALSE,236.8552108,240.9772324,0.512125,0.443565588,-2.53774187,-9.591444464,-4.18744035,-13.85725441
2.101504,113.202805,18.144116,3,0.656982,0.06665,-0.105957,0.743408,-2.03,1.17,-12.74,-0.388815,1.034898,-12.906397,113.92214,54.292621,-12.907988,0.210875,0.210875,113.1534789,53.49782166,-12.91661717,FALSE,236.3960068,240.9771334,0.526525,0.429241113,-2.541686669,-9.57891873,-4.219428051,-13.97797977
2.110109,113.57576,18.134832,3,0.655945,0.066284,-0.106506,0.744324,-1.45,0.88,-12.76,-0.158363,1.634468,-12.767066,114.18753,53.881182,-12.768619,0.228875,0.228875,113.611537,53.38435349,-12.77853958,FALSE,236.0396726,240.9576789,0.537325,0.411908392,-2.544040902,-9.567433783,-4.241309394,-14.06035695
2.122055,113.480576,18.130189,3,0.654846,0.065979,-0.106995,0.745239,-1.89,0.98,-12.8,-0.182826,1.212233,-12.917801,114.419549,53.191756,-12.916157,0.206875,0.206875,114.211148,53.18165149,-12.90711686,FALSE,236.2948527,240.70563,0.524125,0.433031734,-2.546078824,-9.550430438,-4.271712679,-14.17454795
2.130878,113.859268,18.139474,3,0.653748,0.065735,-0.107422,0.746155,-2.09,0.77,-12.88,0.068911,1.068241,-13.027259,114.562815,52.597752,-13.026035,0.188875,0.188875,114.640238,53.01466464,-13.01804169,FALSE,236.4335969,240.4344542,0.513325,0.451371088,-2.54658136,-9.540370126,-4.29417895,-14.25876702
2.139574,114.60939,18.139474,3,0.65271,0.065491,-0.107727,0.74707,-1.63,1.25,-12.84,-0.460151,1.441797,-12.914896,115.046664,52.52082,-12.916121,0.168875,0.168875,115.0771171,52.86998252,-12.92280935,FALSE,236.705268,240.2655842,0.501325,0.440372267,-2.548282471,-9.529456481,-4.316331418,-14.34168263
2.15205,114.890335,18.134832,3,0.651611,0.06543,-0.107971,0.747925,-1.43,0.58,-12.9,0.182277,1.735943,-12.874172,115.610205,52.248489,-12.874634,0.146875,0.146875,115.6947846,52.65389015,-12.87790348,FALSE,236.9110816,239.9802306,0.488125,0.437589142,-2.550015849,-9.509633739,-4.348134603,-14.46044847
2.160921,115.264908,18.134832,3,0.650574,0.065369,-0.108154,0.74884,-1.66,1.13,-12.93,-0.322725,1.45323,-13.000051,115.872497,51.835726,-12.998669,0.128875,0.128875,116.1181056,52.48168048,-12.99067984,FALSE,237.0112698,239.6853817,0.477325,0.456657149,-2.550638806,-9.495488162,-4.370758556,-14.54474569
2.169806,115.923599,18.139474,3,0.649536,0.065369,-0.108276,0.749756,-1.92,0.64,-12.91,0.201655,1.264512,-13.004791,116.362125,51.759265,-13.004723,0.108875,0.108875,116.5521233,52.32384683,-13.0037084,FALSE,237.2161728,239.4623352,0.465325,0.461298136,-2.55117666,-9.483414593,-4.393423371,-14.62905946
2.181994,116.296127,18.130189,3,0.648499,0.06543,-0.108337,0.75061,-1.75,0.54,-12.84,0.272658,1.425909,-12.888447,116.95371,51.554288,-12.889728,0.086875,0.086875,117.1456907,52.10753465,-12.89728988,FALSE,237.3812404,239.1571927,0.452125,0.44963709,-2.548286196,-9.467019168,-4.424499498,-14.74454341
2.190581,116.578659,18.134832,3,0.647705,0.065613,-0.108398,0.751282,-2.15,0.69,-12.97,0.188789,1.058205,-13.121131,117.178102,51.121303,-13.118581,0.068875,0.068875,117.5437982,51.93130892,-13.10395789,FALSE,237.4272537,238.8246861,0.441325,0.482997938,-2.546304974,-9.456353624,-4.446373125,-14.82579091
2.199382,117.235336,18.130189,3,0.647034,0.065918,-0.108398,0.751831,-1.92,0.81,-12.86,0.025313,1.239786,-12.968592,117.660624,51.050088,-12.970245,0.048875,0.048875,117.9635915,51.76706804,-12.97897729,FALSE,237.5794696,238.5648126,0.429325,0.467625044,-2.545362818,-9.446241315,-4.468779009,-14.90897178
2.21201,117.800461,18.139474,3,0.646484,0.066223,-0.108459,0.752319,-1.9,0.49,-12.73,0.328514,1.27759,-12.812621,118.38542,50.98846,-12.814358,0.026875,0.026875,118.5768206,51.55039962,-12.82538389,FALSE,237.7465782,238.2832875,0.416125,0.448708512,-2.543128754,-9.430346603,-4.500907745,-15.02815855
2.220873,118.268814,18.134832,3,0.646057,0.066589,-0.108398,0.752563,-1.94,0.56,-12.67,0.255153,1.219568,-12.769231,118.769032,50.773796,-12.769728,0.008875,0.008875,118.9963613,51.38746471,-12.77353906,FALSE,237.8553563,238.031381,0.405325,0.443794632,-2.540542234,-9.419280447,-4.523436033,-15.11169068
2.229739,119.208206,18.134832,3,0.645691,0.067017,-0.108337,0.752869,-2.08,0.3,-12.71,0.526366,1.138488,-12.821348,119.472936,50.997998,-12.820779,0.028875,0.028875,119.4397699,51.25857686,-12.81768009,FALSE,237.3791539,237.9445105,0.417325,0.452672722,-2.53707776,-9.408827185,-4.545945123,-15.19515568
2.24209,119.302933,18.139474,3,0.645325,0.067444,-0.108276,0.753174,-1.88,0.52,-12.5,0.260853,1.252101,-12.586458,120.003171,50.718829,-12.58904,0.03125,0.03125,120.0347112,51.0505878,-12.6041974,FALSE,237.0822212,237.6853423,0.41875,0.423976086,-2.532216289,-9.394064103,-4.577250548,-15.31127293
2.250689,120.334549,18.134832,3,0.644897,0.067871,-0.108215,0.75354,-1.84,-0.08,-12.58,0.840698,1.403211,-12.608447,120.631368,50.896477,-12.608233,0.04925,0.04925,120.4665501,50.93326654,-12.60812097,FALSE,236.6968097,237.6362829,0.42955,0.426529622,-2.527480171,-9.382647589,-4.599004713,-15.3920034
2.259648,121.085159,18.134832,3,0.644531,0.068298,-0.108093,0.753845,-2.3,0.1,-12.52,0.7245,0.927007,-12.675436,121.349427,51.125586,-12.674695,0.06925,0.06925,120.9301745,50.8307025,-12.67027158,FALSE,236.3736175,237.6800228,0.44155,0.437764781,-2.520468866,-9.372209377,-4.621617001,-15.47601579
2.272279,121.743698,18.139474,3,0.644104,0.068726,-0.108032,0.75415,-1.66,0.04,-12.54,0.672804,1.559611,-12.534903,122.223119,51.253594,-12.536444,0.09325,0.09325,121.5795482,50.68199389,-12.54528849,FALSE,235.9884898,237.7214733,0.45595,0.421096396,-2.511644193,-9.356505141,-4.653397311,-15.59429698
2.281195,122.775558,18.134832,3,0.643677,0.069092,-0.107971,0.754517,-2.15,-0.23,-12.48,1.008432,1.121224,-12.575861,123.000889,51.625118,-12.575426,0.11125,0.11125,122.0668281,50.61820517,-12.57351547,FALSE,235.8973098,237.948301,0.46675,0.42651488,-2.504149243,-9.344553979,-4.675757718,-15.6776663
2.293056,122.590714,18.144116,3,0.643066,0.069458,-0.107971,0.754944,-2.15,-0.06,-12.43,0.832543,1.090452,-12.53987,123.373875,51.158765,-12.540262,0.13525,0.13525,122.6626642,50.46417578,-12.54245129,FALSE,235.4603748,237.9160165,0.48115,0.424298826,-2.493231341,-9.331437634,-4.705394683,-15.78842427
2.301998,123.810104,18.139474,3,0.642456,0.069763,-0.108093,0.755432,-1.66,-0.08,-12.48,0.770227,1.582684,-12.466518,124.084395,51.422767,-12.467331,0.15125,0.15125,123.1470537,50.39719771,-12.4723436,FALSE,235.4027255,238.1276229,0.49075,0.414511992,-2.486065356,-9.319486043,-4.727657119,-15.87181255
2.310605,123.718491,18.144116,3,0.641724,0.070007,-0.108276,0.755981,-1.75,0.07,-12.46,0.634988,1.477239,-12.479307,124.314777,51.034107,-12.479175,0.16925,0.16925,123.5870051,50.29872918,-12.47877277,FALSE,235.1488932,238.1669244,0.50155,0.417141447,-2.480018013,-9.306317665,-4.749028659,-15.9519687
2.323001,124.000687,18.148759,3,0.640991,0.070129,-0.108582,0.756592,-1.82,0.14,-12.47,0.581161,1.410753,-12.510196,124.764202,50.654175,-12.509854,0.19325,0.19325,124.1994404,50.13042326,-12.50778521,FALSE,234.7048352,238.0956194,0.51595,0.424512417,-2.472480322,-9.28841789,-4.779724243,-16.06721887
2.331607,124.844772,18.144116,3,0.640137,0.070251,-0.108887,0.757202,-2.42,0.09,-12.4,0.733192,0.836932,-12.585136,125.246472,50.615189,-12.584306,0.21125,0.21125,124.6407347,50.03657797,-12.57920164,FALSE,234.48619,238.1562541,0.52675,0.437386274,-2.466824661,-9.278746102,-4.800978073,-16.14711338
2.340475,125.220261,18.144116,3,0.639221,0.070312,-0.109375,0.757996,-1.55,0.21,-12.47,0.475941,1.677021,-12.446245,125.679673,50.485044,-12.447766,0.22925,0.22925,125.0905164,49.93387394,-12.45644545,FALSE,234.2486934,238.1899251,0.53755,0.419718581,-2.461463365,-9.267599234,-4.822830102,-16.22934787
2.352984,125.593643,18.134832,3,0.638245,0.070374,-0.109863,0.758728,-2.2,0.44,-12.42,0.368556,1.018628,-12.574454,126.260273,50.265639,-12.573058,0.25325,0.25325,125.7083333,49.77010721,-12.56540037,FALSE,233.8595493,238.1452791,0.55195,0.439879104,-2.456181458,-9.250739297,-4.853587511,-16.34517082
2.36185,125.781662,18.134832,3,0.637268,0.070374,-0.110474,0.75946,-2.05,0.47,-12.35,0.321386,1.150784,-12.47071,126.427191,49.739323,-12.471837,0.23525,0.23525,126.131382,49.63501076,-12.47797466,FALSE,234.0641502,238.0228126,0.54115,0.428243945,-2.453122946,-9.241122294,-4.875350458,-16.42714524
2.370577,125.784775,18.144116,3,0.636353,0.070374,-0.111084,0.760132,-2.05,0.64,-12.54,0.171678,1.183768,-12.666219,126.488947,49.134393,-12.664077,0.21525,0.21525,126.526616,49.47590739,-12.65177688,FALSE,234.1797146,237.7767243,0.52915,0.45907983,-2.450971461,-9.230935476,-4.896749474,-16.50774807
2.38303,126.162888,18.153401,3,0.635437,0.070312,-0.111755,0.760742,-1.85,0.91,-12.46,-0.119896,1.320225,-12.559644,126.910601,48.742416,-12.560794,0.19325,0.19325,127.0944144,49.25478394,-12.56671246,FALSE,234.2608943,237.4552502,0.51595,0.449345507,-2.45064904,-9.215344364,-4.927269414,-16.62260383
2.391638,126.628494,18.139474,3,0.634583,0.07019,-0.112366,0.761414,-2.87,0.01,-12.68,0.973385,0.569422,-12.951743,127.165767,48.386388,-12.947435,0.17525,0.17525,127.4750772,49.08891099,-12.92220342,FALSE,234.2965775,237.1704055,0.50515,0.510724805,-2.446975624,-9.207211323,-4.94834879,-16.70189451
2.400554,126.817032,18.139474,3,0.633728,0.070129,-0.112976,0.762024,-1.65,0.86,-12.59,-0.078714,1.572125,-12.629028,127.394876,48.009521,-12.632537,0.15525,0.15525,127.8596207,48.90353155,-12.65152046,FALSE,234.2897656,236.812779,0.49315,0.469846627,-2.44298718,-9.197664307,-4.970148245,-16.78394344
2.413174,127.663956,18.144116,3,0.632812,0.070007,-0.113525,0.762695,-2.26,-0.07,-12.63,0.962186,1.172701,-12.740789,128.155972,48.044164,-12.739596,0.13125,0.13125,128.4365058,48.69096089,-12.73394032,FALSE,234.4294746,236.5407243,0.47875,0.487705423,-2.437412472,-9.180344455,-5.000943566,-16.89990868
2.422033,128.227066,18.144116,3,0.63208,0.069824,-0.114014,0.763306,-2.12,0.84,-12.66,0.056786,1.162078,-12.811016,128.622437,47.992956,-12.810229,0.11525,0.11525,128.8364847,48.53667709,-12.80510275,FALSE,234.4864444,236.3259493,0.46915,0.502756179,-2.432898935,-9.170002551,-5.022516611,-16.98119154
2.430722,129.070969,18.139474,3,0.631531,0.069702,-0.114441,0.763672,-2.45,-0.2,-12.59,1.147444,1.020138,-12.735502,129.2986,48.228972,-12.736326,0.09525,0.09525,129.248762,48.41345354,-12.74084178,FALSE,234.7351811,236.2480881,0.45715,0.494476911,-2.427667158,-9.160521914,-5.04363334,-17.0608285
2.443187,129.070969,18.139474,3,0.631042,0.069519,-0.114868,0.764038,-2.1,1.02,-12.59,-0.104897,1.142353,-12.753137,129.766666,47.905504,-12.752952,0.07325,0.07325,129.8135113,48.20386359,-12.75219372,FALSE,234.8298246,235.9809151,0.44395,0.500718155,-2.421169484,-9.147044188,-5.073853714,-17.17493041
2.451807,129.916,18.134832,3,0.630676,0.069336,-0.115295,0.764282,-2.43,0.79,-12.61,0.196634,0.880919,-12.834574,130.265916,47.924495,-12.833674,0.05525,0.05525,130.2134961,48.07368961,-12.82825378,FALSE,235.0021661,235.8653169,0.43315,0.516448017,-2.420774098,-9.138323886,-5.094722491,-17.25374035
2.463811,130.103561,18.134832,3,0.630554,0.069092,-0.115723,0.764404,-2.29,0.14,-12.25,0.8041,1.038735,-12.393606,130.745974,47.652433,-12.398455,0.03125,0.03125,130.7564279,47.87534556,-12.42695224,FALSE,235.1408148,235.6243138,0.41875,0.451499969,-2.414767692,-9.126802123,-5.123745413,-17.36336763
2.472589,131.327499,18.139474,3,0.630493,0.068909,-0.116089,0.764404,-2.02,0.8,-12.39,0.119616,1.218285,-12.519356,131.501722,48.043994,-12.518023,0.04925,0.04925,131.1835,47.77600302,-12.51226677,FALSE,234.905589,235.6594969,0.42955,0.468160065,-2.410713503,-9.116896062,-5.14492445,-17.44343922
2.481445,132.079422,18.139474,3,0.630432,0.068665,-0.116455,0.764343,-2.22,0.34,-12.19,0.611412,1.061014,-12.334506,132.261063,48.375731,-12.336528,0.06725,0.06725,131.6288857,47.6958184,-12.34814382,FALSE,234.7689748,235.7889357,0.44035,0.441205979,-2.407476511,-9.106803326,-5.166259395,-17.52413376
2.493953,132.643295,18.139474,3,0.630432,0.068359,-0.11676,0.764404,-2.12,0.84,-12.23,0.114634,1.078299,-12.39344,133.087071,48.498156,-12.392813,0.09125,0.09125,132.2447776,47.56864022,-12.38996487,FALSE,234.5393751,235.9043901,0.45475,0.450877007,-2.402935819,-9.093424063,-5.196343714,-17.63795799
2.502808,132.267044,18.139474,3,0.63031,0.068054,-0.117126,0.764404,-2.01,0.5,-12.17,0.435043,1.229493,-12.275903,133.039274,47.675264,-12.277191,0.10925,0.10925,132.6462802,47.43317289,-12.28465384,FALSE,234.160961,235.7737519,0.46555,0.434946536,-2.400502124,-9.083206313,-5.217610936,-17.71843502
2.511388,133.019028,18.139474,3,0.630249,0.06781,-0.117432,0.764465,-2.18,0.64,-12.1,0.33782,1.026862,-12.26391,133.43616,47.554439,-12.264057,0.12725,0.12725,133.0511805,47.32560942,-12.26550147,FALSE,233.8991859,235.7567972,0.47635,0.433544359,-2.397186542,-9.073526551,-5.23819302,-17.7963274
2.523757,134.427811,18.134832,3,0.630127,0.067505,-0.117798,0.764526,-2.06,0.56,-12.16,0.406926,1.172953,-12.283377,134.598757,48.113397,-12.283164,0.15125,0.15125,133.6739386,47.22547565,-12.28200558,FALSE,233.805168,235.9873768,0.49075,0.438311167,-2.39258066,-9.059921795,-5.267815335,-17.90847371
2.532299,134.335037,18.139474,3,0.629944,0.067261,-0.118103,0.764648,-2.2,0.79,-12.16,0.218951,1.001306,-12.340141,134.8561,47.780766,-12.339513,0.16925,0.16925,134.0893297,47.13721328,-12.33568084,FALSE,233.6392734,236.0575156,0.50155,0.449506973,-2.389907539,-9.050635534,-5.288241342,-17.9858239
2.541325,134.615982,18.134832,3,0.629639,0.066956,-0.118408,0.764893,-1.74,0.5,-12.12,0.421044,1.479369,-12.157559,135.147933,47.49014,-12.159564,0.18725,0.18725,134.5191763,47.03253944,-12.17122453,FALSE,233.4320748,236.0784392,0.51235,0.422110544,-2.387019242,-9.039440248,-5.309799613,-18.06746442
2.553971,134.995438,18.144116,3,0.629211,0.06665,-0.118713,0.765198,-1.72,0.34,-12.08,0.582387,1.517656,-12.09784,135.658969,47.225832,-12.098521,0.21125,0.21125,135.1072887,46.87102981,-12.10347007,FALSE,233.0989865,236.0367138,0.52675,0.412828677,-2.380674548,-9.020490059,-5.339945741,-18.18165735
2.5628,135.651199,18.139474,3,0.628723,0.066284,-0.119019,0.765564,-1.95,0.33,-12,0.646145,1.280848,-12.076956,136.070936,47.11237,-12.077194,0.22925,0.22925,135.5269392,46.77264621,-12.07899016,FALSE,232.9184011,236.0733682,0.53755,0.410142242,-2.375251193,-9.008136063,-5.360940775,-18.26124472
2.571488,136.216293,18.139474,3,0.628174,0.065918,-0.119324,0.766052,-1.95,0.66,-12.16,0.343458,1.263671,-12.263319,136.563927,47.118284,-12.261268,0.24725,0.24725,135.9464695,46.68583171,-12.24917727,FALSE,232.7850661,236.1553621,0.54835,0.442546525,-2.370952358,-8.997082673,-5.381558283,-18.33945939
2.59195,135.654861,18.148759,3,0.627014,0.065247,-0.119934,0.766968,-1.32,0.49,-12.17,0.40433,1.895128,-12.096964,136.992632,46.213021,-12.098775,0.20525,0.20525,136.8377361,46.35132165,-12.10864187,FALSE,233.0000205,235.7497684,0.52315,0.423090077,-2.363301739,-8.964765,-5.429994437,-18.52322706
2.601214,137.249619,18.134832,3,0.626465,0.06488,-0.1203,0.767395,-2.23,0.94,-12.1,0.161458,0.933355,-12.303231,137.572326,46.409621,-12.300978,0.21875,0.21875,137.2657775,46.23785608,-12.2883021,FALSE,232.8401923,235.7392645,0.53125,0.458400031,-2.360681009,-8.951663467,-5.451875925,-18.60621596
2.611081,136.684464,18.134832,3,0.625977,0.064514,-0.120667,0.767761,-1.42,0.62,-12.15,0.321684,1.773681,-12.115032,137.511279,45.471741,-12.117081,0.20075,0.20075,137.6704347,46.04736005,-12.12832531,FALSE,232.7780492,235.409199,0.52045,0.432365144,-2.358297428,-8.938308305,-5.475157005,-18.69447613
2.623754,137.529587,18.130189,3,0.625488,0.064087,-0.121155,0.768127,-2.02,1.2,-12.3,-0.095517,1.139866,-12.47005,138.097225,45.328864,-12.46616,0.17675,0.17675,138.2172464,45.84447431,-12.44383285,FALSE,232.8846142,235.1756426,0.50605,0.495564272,-2.356864321,-8.919846614,-5.505034627,-18.80763433
2.632345,138.469681,18.130189,3,0.624878,0.063599,-0.121643,0.768555,-2.12,0.5,-12.24,0.623435,1.163297,-12.362038,138.703072,45.560334,-12.363186,0.15875,0.15875,138.6037029,45.7281981,-12.36831331,FALSE,233.0697943,235.1158611,0.49525,0.483806083,-2.354596649,-8.909953378,-5.525272708,-18.88422224
2.641609,138.753342,18.134832,3,0.624329,0.063293,-0.122192,0.768921,-1.88,1.27,-12.28,-0.161434,1.26021,-12.423019,139.153728,45.483668,-12.42236,0.13875,0.13875,139.0133865,45.59540206,-12.41882198,FALSE,233.2403259,235.0168027,0.48325,0.496235827,-2.35245666,-8.898727693,-5.547075779,-18.96671205
2.654345,139.034927,18.130189,3,0.623962,0.062988,-0.122742,0.769165,-2.24,0.69,-12.26,0.494895,1.031238,-12.429511,139.662972,45.23815,-12.429433,0.11475,0.11475,139.5655424,45.3997517,-12.42869095,FALSE,233.3677825,234.8211676,0.46885,0.502415539,-2.35033318,-8.884135752,-5.577023145,-19.07995332
2.663174,140.351181,18.130189,3,0.623657,0.062805,-0.123291,0.769348,-1.57,1.1,-12.19,-0.039739,1.574333,-12.238908,140.462134,45.729145,-12.241008,0.13275,0.13275,139.9848204,45.31580189,-12.25346817,FALSE,233.2548788,234.9202228,0.47965,0.470536283,-2.348323894,-8.872633459,-5.597765366,-19.15834058
2.67499,140.351181,18.130189,3,0.623413,0.062622,-0.12384,0.76947,-1.74,1.02,-12.08,0.080492,1.407221,-12.165837,140.937151,45.50112,-12.166666,0.15475,0.15475,140.5111233,45.15982976,-12.17256008,FALSE,232.9416948,234.8526019,0.49285,0.458103953,-2.348083126,-8.855018438,-5.625511739,-19.26307555
2.683599,140.447159,18.134832,3,0.623169,0.0625,-0.12439,0.769592,-2.01,1.13,-12.08,0.042397,1.139759,-12.245102,141.043918,44.983565,-12.244237,0.13675,0.13675,140.8772653,45.02498786,-12.23953658,FALSE,233.0301046,234.7063588,0.48205,0.473916691,-2.34755415,-8.844054963,-5.64572411,-19.33926121
2.692205,141.387527,18.134832,3,0.623169,0.062439,-0.124878,0.769531,-1.39,0.99,-11.98,0.047986,1.73308,-11.976091,141.629244,45.133983,-11.979046,0.15475,0.15475,141.2703148,44.92793083,-11.99630257,FALSE,232.8543141,234.7312223,0.49285,0.42831492,-2.347165232,-8.831693136,-5.665925487,-19.41531995
2.704687,142.044724,18.130189,3,0.623291,0.062378,-0.125366,0.769348,-2.18,1.16,-12.05,0.065145,0.982577,-12.260945,142.432547,45.269747,-12.257839,0.17875,0.17875,141.8407025,44.79218706,-12.2406416,FALSE,232.6509589,234.78754,0.50725,0.479073514,-2.346459181,-8.814744721,-5.695218397,-19.52545137
2.713534,141.951889,18.134832,3,0.623352,0.062378,-0.125916,0.769226,-1.8,1.05,-11.9,0.089853,1.331955,-12.007098,142.553373,44.757503,-12.009861,0.171875,0.171875,142.2225855,44.66531159,-12.02501549,FALSE,232.6533368,234.6898625,0.503125,0.439057908,-2.345773548,-8.804506389,-5.715974489,-19.60339013
2.722391,143.269547,18.134832,3,0.623352,0.062439,-0.126404,0.769165,-2.1,1.19,-11.97,0.02858,1.051447,-12.165563,143.363674,45.187447,-12.163847,0.189875,0.189875,142.6494597,44.60133431,-12.15478017,FALSE,232.643375,234.8752568,0.513925,0.466114058,-2.345249067,-8.793951493,-5.736748682,-19.6813249
2.734882,143.460495,18.144116,3,0.623169,0.0625,-0.126892,0.769226,-1.62,1.45,-11.99,-0.320485,1.469924,-12.0923,143.983348,45.105392,-12.093088,0.213875,0.213875,143.2181094,44.46639992,-12.09709348,FALSE,232.4576103,234.935351,0.528325,0.457410098,-2.34707216,-8.77820427,-5.766054575,-19.7910718
2.743474,143.926895,18.130189,3,0.622925,0.062683,-0.12738,0.769287,-2.2,1.17,-11.92,0.077364,0.969613,-12.138745,144.337653,44.952899,-12.138242,0.231875,0.231875,143.615667,44.38385546,-12.13554949,FALSE,232.3612191,235.0223084,0.539125,0.46683274,-2.348116608,-8.767724019,-5.786225105,-19.8664491
2.752466,144.398514,18.134832,3,0.622681,0.062866,-0.127808,0.769409,-2.1,1.81,-11.85,-0.568688,0.932551,-12.120873,144.776588,44.889215,-12.121065,0.251875,0.251875,144.0329429,44.29974487,-12.12199898,FALSE,232.2612071,235.1234843,0.551125,0.465876666,-2.3503256,-8.75917189,-5.807349302,-19.94525003
2.764999,144.494522,18.139474,3,0.622437,0.063049,-0.128296,0.769531,-1.36,1.24,-11.87,-0.168491,1.756157,-11.881569,145.174545,44.538138,-11.884209,0.273875,0.273875,144.5826724,44.1419518,-11.90001482,FALSE,232.0182366,235.0812784,0.564325,0.424162307,-2.354945132,-8.742323101,-5.836834881,-20.05492315
2.77389,144.775742,18.134832,3,0.622131,0.063354,-0.128723,0.769653,-2.29,1.68,-11.84,-0.395631,0.799866,-12.143137,145.338252,44.087806,-12.140284,0.255875,0.255875,144.9649837,44.02298879,-12.12448464,FALSE,232.1750319,235.0182484,0.553525,0.472259851,-2.357452937,-8.730960301,-5.857783846,-20.13260063
2.782795,145.528122,18.134832,3,0.621765,0.063721,-0.12915,0.769897,-1.44,0.85,-11.95,0.234066,1.803834,-11.928549,145.84028,44.1259,-11.930882,0.275875,0.275875,145.3648517,43.92628689,-11.9435812,FALSE,232.0243197,235.056701,0.565525,0.437266253,-2.358172305,-8.719367327,-5.878780168,-20.21029821
2.795305,145.435776,18.139474,3,0.621338,0.064087,-0.129578,0.770081,-2.19,1.34,-12.01,-0.075146,1.033626,-12.237552,146.156542,43.681537,-12.234173,0.253875,0.253875,145.8901288,43.74527685,-12.21499853,FALSE,232.1465104,234.9068966,0.552325,0.496979241,-2.35717826,-8.701619015,-5.908274685,-20.31926648
2.803913,146.092728,18.134832,3,0.620972,0.064636,-0.129883,0.770325,-1.89,1.08,-12.05,0.109241,1.391363,-12.165254,146.495025,43.521962,-12.166013,0.235875,0.235875,146.2578079,43.62887919,-12.16907041,FALSE,232.2932343,234.8414552,0.541525,0.49009307,-2.357031516,-8.691181862,-5.928564644,-20.3941251
2.812712,146.092728,18.134832,3,0.620667,0.065247,-0.130188,0.770447,-2.06,1.17,-11.97,0.047562,1.206628,-12.142293,146.644793,43.113823,-12.142554,0.215875,0.215875,146.614684,43.48638517,-12.14434737,FALSE,232.3561966,234.6691613,0.529525,0.488140271,-2.356341661,-8.679752001,-5.94930113,-20.47054852
2.825345,146.941757,18.139474,3,0.620422,0.065918,-0.130493,0.770508,-2.54,1.46,-12.02,-0.133284,0.729302,-12.349649,147.360793,43.169123,-12.347367,0.191875,0.191875,147.1522998,43.31830663,-12.33389824,FALSE,232.5482618,234.5840958,0.515125,0.531881236,-2.356883124,-8.667523699,-5.979072214,-20.58012259
2.834241,147.410904,18.134832,3,0.6203,0.06665,-0.130737,0.770508,-2.1,0.73,-11.92,0.463773,1.273086,-12.049622,147.77348,43.105164,-12.052903,0.173875,0.173875,147.5310459,43.20058557,-12.07143171,FALSE,232.6951795,234.5276907,0.504325,0.479170399,-2.355413109,-8.658617077,-6.000032508,-20.65718926
2.846156,147.883224,18.139474,3,0.620239,0.067444,-0.13092,0.770447,-2.36,1.16,-11.93,0.091183,0.96328,-12.178001,148.349993,43.043837,-12.176623,0.197875,0.197875,148.0370439,43.0460773,-12.16982499,FALSE,232.4121811,234.4637731,0.518725,0.503614708,-2.352106958,-8.645293926,-6.028077558,-20.76027731
2.855088,148.259537,18.139474,3,0.620178,0.068298,-0.131104,0.770386,-2.36,0.55,-11.89,0.6693,1.088223,-12.066967,148.681415,42.858953,-12.068176,0.181875,0.181875,148.4132041,42.92694789,-12.07485828,FALSE,232.5293672,234.4014624,0.509125,0.486034145,-2.348710641,-8.636131914,-6.04907141,-20.83745616
2.863769,148.540329,18.134832,3,0.620239,0.069153,-0.131287,0.770264,-2.83,0.36,-11.84,0.942059,0.687024,-12.122909,148.97138,42.646455,-12.122306,0.163875,0.163875,148.7735454,42.80627494,-12.11922255,FALSE,232.6436227,234.3184953,0.498325,0.498352552,-2.341716537,-8.628426454,-6.069430209,-20.91239297
2.875869,148.920303,18.144116,3,0.620361,0.070068,-0.131348,0.770081,-2.56,0.84,-11.79,0.395603,0.846669,-12.057788,149.456899,42.464219,-12.058499,0.139875,0.139875,149.272617,42.63556465,-12.06250127,FALSE,232.7770558,234.1918948,0.483925,0.49001207,-2.333623682,-8.619147612,-6.097716017,-21.0167408
2.884692,149.765915,18.139474,3,0.620605,0.070984,-0.131409,0.769775,-2.59,0.61,-11.65,0.601707,0.837981,-11.905401,150.010536,42.618731,-11.907088,0.157875,0.157875,149.6540159,42.5368559,-11.91745375,FALSE,232.6328347,234.2122958,0.494725,0.460588459,-2.329224049,-8.611715778,-6.11828617,-21.09275475
2.893377,150.330734,18.139474,3,0.621033,0.071899,-0.131409,0.769348,-2.85,0.47,-11.64,0.776346,0.632289,-11.95118,150.565434,42.755497,-11.950694,0.175875,0.175875,150.0378433,42.45310819,-11.94859252,FALSE,232.5477937,234.2902909,0.505525,0.469239787,-2.323239854,-8.605331131,-6.138489495,-21.16751978
2.905903,150.237839,18.144116,3,0.62146,0.072693,-0.13147,0.768921,-2.86,0.26,-11.56,0.963985,0.65281,-11.854353,150.910009,42.37479,-11.855414,0.199875,0.199875,150.5526174,42.28201926,-11.86158307,FALSE,232.2364471,234.1815649,0.519925,0.4537989,-2.312340161,-8.597282556,-6.167522132,-21.27525975
2.914765,151.084579,18.139474,3,0.621765,0.073486,-0.13147,0.768616,-2.55,0.21,-11.63,0.933863,0.984793,-11.830561,151.386525,42.419853,-11.830835,0.217875,0.217875,150.9344833,42.1871135,-11.83294102,FALSE,232.1204816,234.2183131,0.530725,0.449478961,-2.303930797,-8.590026337,-6.187976829,-21.35141671
2.923611,152.118851,18.134832,3,0.62207,0.074158,-0.13147,0.76825,-2.75,0.52,-11.59,0.65918,0.736148,-11.882093,152.185149,42.872512,-11.881528,0.235875,0.235875,151.3463312,42.13453172,-11.87832205,FALSE,232.1841067,234.4391816,0.541525,0.460709947,-2.296884767,-8.582414615,-6.208326236,-21.42737042
2.935977,151.930374,18.134832,3,0.622375,0.074829,-0.13147,0.767944,-2.42,0.32,-11.53,0.767524,1.075438,-11.711266,152.566561,42.544024,-11.713142,0.259875,0.259875,151.8695584,41.9919492,-11.72408256,FALSE,231.9990892,234.4453711,0.555925,0.429254018,-2.288063457,-8.571213579,-6.236674971,-21.5334313
2.944787,152.399246,18.130189,3,0.622681,0.075317,-0.131531,0.7677,-2.65,0.23,-11.55,0.897126,0.891128,-11.784729,152.843692,42.296721,-11.78394,0.277875,0.277875,152.2467912,41.89895213,-11.7800762,FALSE,231.8975281,234.4860285,0.566725,0.443774631,-2.280730673,-8.562550855,-6.256800509,-21.60890553
2.953576,153.436783,18.134832,3,0.622803,0.075745,-0.131653,0.767456,-2.4,0.46,-11.47,0.608851,1.066421,-11.662933,153.558185,42.644635,-11.664266,0.297875,0.297875,152.6541712,41.84821577,-11.67192023,FALSE,231.9550996,234.7100014,0.578725,0.420429276,-2.274112657,-8.553948406,-6.276816768,-21.68412399
2.9662,153.156357,18.139474,3,0.622986,0.075989,-0.131836,0.767273,-2.67,0.35,-11.57,0.776275,0.870991,-11.821792,153.862353,42.206871,-11.820056,0.321875,0.321875,153.180312,41.69909347,-11.81029382,FALSE,231.7684549,234.6979734,0.593125,0.454910894,-2.265369742,-8.541719462,-6.305469981,-21.79203185
2.975049,153.436783,18.134832,3,0.623047,0.076233,-0.132019,0.767151,-2.4,0.19,-11.62,0.875563,1.175737,-11.775862,153.987959,41.733135,-11.776349,0.337875,0.337875,153.5434332,41.58737878,-11.77850361,FALSE,231.6195087,234.6588024,0.602725,0.450089511,-2.258061185,-8.532663714,-6.325483901,-21.86757745
2.983879,153.436783,18.134832,3,0.622925,0.076355,-0.132202,0.767212,-2.95,0.54,-11.67,0.653718,0.615294,-12.015677,154.036949,41.204789,-12.01304,0.317875,0.317875,153.8874022,41.45285039,-11.99748103,FALSE,231.6841193,234.519325,0.590725,0.503409341,-2.251309409,-8.524756312,-6.345392772,-21.94288596
2.996249,154.097885,18.139474,3,0.622803,0.076416,-0.132507,0.767273,-2.49,0.68,-11.71,0.425141,1.037802,-11.938539,154.581105,41.101161,-11.93936,0.293875,0.293875,154.3846643,41.28495037,-11.94306104,FALSE,231.8218425,234.4147523,0.576325,0.494886403,-2.244636666,-8.514531913,-6.373200199,-22.04827396
3.005033,154.379379,18.134832,3,0.622742,0.076294,-0.132812,0.767273,-2.37,0.6,-11.69,0.483635,1.163082,-11.876284,154.824455,40.823393,-11.876979,0.277875,0.277875,154.7291207,41.15640759,-11.88140715,FALSE,231.8691081,234.299607,0.566725,0.483588898,-2.240645322,-8.504865631,-6.392899557,-22.12302316
3.016926,154.75853,18.144116,3,0.622681,0.076172,-0.133179,0.767273,-2.6,1.34,-11.69,-0.181673,0.813084,-12.021541,155.270813,40.630312,-12.019948,0.253875,0.253875,155.1954944,40.9851279,-12.01078992,FALSE,231.9595209,234.1551402,0.552325,0.518097826,-2.238849705,-8.49311436,-6.419536874,-22.22410164
3.025483,155.413437,18.130189,3,0.622681,0.075928,-0.133545,0.767273,-2.39,0.48,-11.83,0.629981,1.216999,-12.000575,155.70088,40.649419,-12.000789,0.235875,0.235875,155.5393771,40.87382234,-12.00135869,FALSE,232.0774368,234.1030327,0.541525,0.518691028,-2.236931619,-8.484428649,-6.438686505,-22.29674006
3.034353,155.417099,18.139474,3,0.622681,0.075623,-0.133911,0.767212,-2.8,1.35,-11.73,-0.125477,0.641673,-12.117256,155.896816,40.329827,-12.115972,0.217875,0.217875,155.8781493,40.73622077,-12.10836435,FALSE,232.0997974,233.9533135,0.530725,0.547700549,-2.234694144,-8.476185439,-6.458518165,-22.37196038
3.046899,156.077286,18.144116,3,0.622803,0.075378,-0.134216,0.76709,-2.28,0.57,-11.81,0.537853,1.301011,-11.958994,156.506589,40.30922,-11.960724,0.193875,0.193875,156.3732143,40.56425904,-11.97045372,FALSE,232.2092768,233.8395472,0.516325,0.519210711,-2.232107309,-8.463998982,-6.486538411,-22.47822616
3.055736,157.017014,18.134832,3,0.623047,0.075134,-0.134583,0.766846,-2.6,0.96,-11.62,0.225,0.874598,-11.911777,157.159043,40.645763,-11.912316,0.211875,0.211875,156.7450068,40.47695877,-11.91627868,FALSE,232.1394282,233.9029524,0.527125,0.508376954,-2.228736643,-8.454386054,-6.50624865,-22.55298005
3.0643,157.017014,18.134832,3,0.623352,0.074951,-0.134827,0.766541,-2.6,0.9,-11.68,0.292866,0.905757,-11.961848,157.424516,40.434651,-11.961302,0.229875,0.229875,157.0876472,40.3701232,-11.95835192,FALSE,231.9781821,233.8688403,0.537925,0.521279979,-2.226519141,-8.446762574,-6.525326055,-22.62535076
3.076774,157.396774,18.144116,3,0.623779,0.074768,-0.135071,0.766174,-1.87,0.85,-11.53,0.185966,1.554811,-11.606381,157.911901,40.270115,-11.610292,0.253875,0.253875,157.5809343,40.20873568,-11.63338425,FALSE,231.7426762,233.794345,0.552325,0.445987962,-2.223532666,-8.431416011,-6.553081028,-22.73061996
3.085376,158.243607,18.139474,3,0.624329,0.074646,-0.135315,0.765747,-2.51,1.15,-11.53,0.0327,0.90338,-11.821446,158.450575,40.45397,-11.819119,0.271875,0.271875,157.9416649,40.1289603,-11.80701788,FALSE,231.6987371,233.8750152,0.563125,0.490401634,-2.222592184,-8.420843332,-6.572203811,-22.80310153
3.094357,158.712234,18.134832,3,0.624878,0.074463,-0.135559,0.765198,-2.09,0.88,-11.51,0.213322,1.342196,-11.65226,158.964828,40.546479,-11.654099,0.289875,0.289875,158.3213209,40.04933777,-11.66413304,FALSE,231.6771604,233.9755443,0.573925,0.457126065,-2.221487422,-8.410759573,-6.59215995,-22.87868384
3.106981,158.339737,18.144116,3,0.625427,0.07428,-0.135742,0.764832,-2.27,1.15,-11.39,-0.014198,1.089267,-11.61986,159.112821,39.946116,-11.620238,0.313875,0.313875,158.8024524,39.87058355,-11.62325664,FALSE,231.3899519,233.8314778,0.588325,0.451065762,-2.220230551,-8.395412178,-6.620196074,-22.9847644
3.115878,159.939041,18.139474,3,0.625793,0.074158,-0.135986,0.764465,-2.5,0.96,-11.47,0.2283,0.93517,-11.739078,159.948241,40.56372,-11.737769,0.331875,0.331875,159.1944471,39.81755848,-11.73019216,FALSE,231.4752351,234.038402,0.599125,0.478940112,-2.219278118,-8.38640647,-6.639945229,-23.05941832
3.124524,159.846542,18.144116,3,0.626099,0.074036,-0.136169,0.76416,-2.36,1.08,-11.45,0.085295,1.040561,-11.69394,160.239652,40.38409,-11.694423,0.351875,0.351875,159.5530837,39.73592129,-11.69672127,FALSE,231.4217205,234.1124512,0.611125,0.472527341,-2.217922447,-8.377865385,-6.659127247,-23.13189027
3.137105,159.750412,18.139474,3,0.626343,0.073853,-0.136414,0.763977,-2.48,0.86,-11.49,0.333769,0.981163,-11.740368,160.462837,39.884632,-11.739862,0.373875,0.373875,160.0374848,39.56914742,-11.73701942,FALSE,231.2082882,234.0167865,0.624325,0.486696785,-2.215286325,-8.36514773,-6.687014346,-23.23721219
3.145756,160.689926,18.130189,3,0.626526,0.073669,-0.136658,0.763794,-2.15,1.13,-11.43,0.005569,1.226086,-11.620717,160.939431,39.981564,-11.62203,0.391875,0.391875,160.3943237,39.48770656,-11.62963973,FALSE,231.175587,234.0910012,0.635125,0.461474132,-2.213818519,-8.355600275,-6.706172439,-23.30953779
3.154693,160.316818,18.139474,3,0.626526,0.073547,-0.136841,0.763794,-2.57,0.86,-11.62,0.371392,0.939219,-11.88904,160.935936,39.402243,-11.886098,0.375,0.375,160.7261014,39.35602341,-11.86913878,FALSE,231.2035002,233.9666904,0.625,0.525713306,-2.212134068,-8.345924609,-6.725949809,-23.38416855
3.167339,161.070328,18.139474,3,0.626404,0.073425,-0.137085,0.763855,-2.38,1.06,-11.59,0.141469,1.07533,-11.829624,161.511307,39.350346,-11.830246,0.399,0.399,161.2154706,39.1960575,-11.83265558,FALSE,231.0146129,233.9034988,0.6394,0.520622504,-2.208891248,-8.333186616,-6.753903952,-23.48963057
3.176187,161.447647,18.139474,3,0.626221,0.073303,-0.137329,0.763916,-2.36,0.94,-11.7,0.267195,1.15135,-11.914104,161.821991,39.189156,-11.91318,0.40625,0.40625,161.5563089,39.08393404,-11.90785527,FALSE,230.9490423,233.8580104,0.64375,0.543081177,-2.207083319,-8.323335784,-6.773440223,-23.56331903
3.18486,161.543808,18.144116,3,0.62616,0.073242,-0.137573,0.763977,-2.17,0.86,-11.66,0.309071,1.334957,-11.81214,162.000417,38.872135,-11.813253,0.38625,0.38625,161.8779697,38.95820068,-11.81948329,FALSE,231.0060117,233.7474096,0.63175,0.52356715,-2.204584341,-8.312553913,-6.79257142,-23.63546056
3.197355,162.198105,18.130189,3,0.626038,0.073242,-0.137817,0.764038,-2.45,0.53,-11.71,0.695821,1.151179,-11.899516,162.599928,38.865847,-11.898566,0.390625,0.390625,162.3558153,38.79968025,-11.89337588,FALSE,230.950632,233.681723,0.634375,0.54726429,-2.198306278,-8.297021779,-6.820078479,-23.73922889
3.205892,162.201248,18.139474,3,0.626038,0.073242,-0.138062,0.763977,-2.07,1.26,-11.67,-0.094157,1.369447,-11.839645,162.699646,38.419133,-11.840294,0.372625,0.372625,162.6632379,38.66689718,-11.84376724,FALSE,230.9554965,233.5351089,0.623575,0.537908457,-2.195738076,-8.286262487,-6.838834457,-23.81001464
3.217948,162.863449,18.144116,3,0.626038,0.073303,-0.138306,0.763977,-2.43,0.87,-11.63,0.361062,1.09504,-11.857061,163.257128,38.399732,-11.856876,0.348625,0.348625,163.1157111,38.50684373,-11.85604111,FALSE,231.0564664,233.4418145,0.609175,0.545662717,-2.194129172,-8.271406559,-6.865296577,-23.90982426
3.226814,163.329147,18.130189,3,0.625977,0.073364,-0.13855,0.763977,-2.33,1.06,-11.69,0.161219,1.178492,-11.907741,163.638969,38.356183,-11.907181,0.330625,0.330625,163.4504938,38.39344337,-11.90377458,FALSE,231.1472943,233.3909194,0.598375,0.561696303,-2.191813901,-8.261327992,-6.884739463,-23.98311388
3.235671,163.425339,18.134832,3,0.625916,0.073486,-0.138794,0.763916,-2.15,0.6,-11.73,0.577224,1.447528,-11.838365,163.85457,38.087728,-11.839124,0.312625,0.312625,163.7725308,38.26459059,-11.84338323,FALSE,231.1748224,233.2757412,0.587575,0.549175138,-2.188543706,-8.249698662,-6.904137877,-24.05623296
3.247895,163.617691,18.144116,3,0.625916,0.073608,-0.139038,0.763855,-2.34,0.61,-11.51,0.594369,1.207329,-11.684042,164.181814,37.772923,-11.685751,0.288625,0.288625,164.2093143,38.07953949,-11.69626669,FALSE,231.1744957,233.0865193,0.573175,0.514405367,-2.181382929,-8.233472176,-6.930846868,-24.1569781
3.256588,164.745743,18.134832,3,0.625854,0.07373,-0.139282,0.763855,-2.52,0.92,-11.55,0.332614,1.00231,-11.810338,164.837332,38.153759,-11.808965,0.306625,0.306625,164.5498204,37.99108087,-11.80158643,FALSE,231.1187059,233.1285737,0.583975,0.545659388,-2.177353798,-8.22386798,-6.949792117,-24.22850993
3.265294,164.557022,18.134832,3,0.625916,0.073914,-0.139587,0.763733,-2.15,0.96,-11.57,0.219772,1.355862,-11.726993,165.006895,37.839445,-11.727897,0.296875,0.296875,164.8646013,37.86764544,-11.73271582,FALSE,231.1020303,233.0277541,0.578125,0.530229964,-2.174949262,-8.213602858,-6.968737693,-24.30006224
3.277754,164.934464,18.134832,3,0.62616,0.074097,-0.139893,0.763489,-2.16,1.07,-11.43,0.10668,1.292562,-11.609202,165.435446,37.642911,-11.61051,0.272875,0.272875,165.316132,37.69551711,-11.618678,FALSE,231.1549041,232.9014156,0.563725,0.503347153,-2.172915466,-8.197103176,-6.99582489,-24.40230094
3.286698,166.065811,18.134832,3,0.626465,0.074341,-0.140198,0.763123,-2.73,0.82,-11.27,0.4568,0.763762,-11.590779,166.138104,38.08422,-11.590997,0.290875,0.290875,165.6727247,37.61830423,-11.59291941,FALSE,231.1554805,232.9994259,0.574525,0.498217589,-2.170395583,-8.187907295,-7.015248177,-24.4755747
3.29557,165.973251,18.139474,3,0.626831,0.074585,-0.140564,0.762756,-2.19,1.07,-11.35,0.107889,1.259885,-11.539703,166.380089,37.854639,-11.540268,0.310875,0.310875,166.0044433,37.5133823,-11.54378577,FALSE,231.0341203,232.9803995,0.586525,0.48720166,-2.167890623,-8.178930397,-7.034492814,-24.548178
3.308125,166.165146,18.148759,3,0.627075,0.07489,-0.140991,0.762451,-2.73,0.69,-11.35,0.589022,0.833427,-11.649482,166.729626,37.551478,-11.648278,0.332875,0.332875,166.4595465,37.3482218,-11.64137298,FALSE,230.8390854,232.884868,0.599725,0.519185691,-2.163515764,-8.165789631,-7.061683218,-24.65078198
3.316764,167.574265,18.134832,3,0.627197,0.075195,-0.141418,0.762207,-2.09,0.95,-11.14,0.19271,1.333958,-11.293961,167.54461,38.192631,-11.297866,0.350875,0.350875,166.8199616,37.29909802,-11.32061448,FALSE,230.9402636,233.0818584,0.610525,0.429380933,-2.160139072,-8.156427611,-7.080359245,-24.72128579
3.325616,167.108353,18.148759,3,0.627441,0.0755,-0.141907,0.761902,-2.51,0.77,-11.34,0.46722,1.047779,-11.58329,167.629762,37.75746,-11.580144,0.370875,0.370875,167.1477024,37.19605295,-11.5631375,FALSE,230.831356,233.0673132,0.622525,0.501081117,-2.157218222,-8.145886043,-7.099467868,-24.79343983
3.338075,167.574265,18.134832,3,0.627625,0.075867,-0.142395,0.761597,-2.07,1.12,-11.16,0.025461,1.356994,-11.32443,168.067089,37.576098,-11.327247,0.392875,0.392875,167.6084928,37.04987176,-11.34274367,FALSE,230.7144471,233.0437513,0.635725,0.441552028,-2.154149066,-8.13090551,-7.126325531,-24.89483611
3.346966,168.140579,18.134832,3,0.627747,0.076172,-0.142944,0.761353,-2.69,0.86,-11.23,0.410571,0.858597,-11.54047,168.443447,37.537336,-11.53812,0.410875,0.410875,167.9472468,36.96202053,-11.52530041,FALSE,230.6818334,233.0921119,0.646525,0.496494629,-2.152210686,-8.1210561,-7.145469453,-24.9670842
3.355852,168.521286,18.144116,3,0.627869,0.076416,-0.143555,0.761169,-2.1,1.31,-11.13,-0.149325,1.315916,-11.324718,168.821623,37.496752,-11.32707,0.430875,0.430875,168.2870644,36.87557136,-11.3401067,FALSE,230.6460358,233.1466775,0.658525,0.444969223,-2.15104997,-8.111394739,-7.16458884,-25.03920498
3.368344,168.89888,18.144116,3,0.62793,0.076782,-0.144226,0.760925,-2.67,0.97,-11.24,0.307016,0.893852,-11.554833,169.333989,37.408883,-11.552323,0.452875,0.452875,168.754184,36.7436088,-11.53835917,FALSE,230.5911378,233.1793386,0.671725,0.506239645,-2.150065032,-8.097592528,-7.191453605,-25.14044632
3.376938,169.649887,18.134832,3,0.627869,0.077087,-0.144897,0.760864,-2.52,1,-11.16,0.247221,1.019884,-11.436576,169.838664,37.586278,-11.437851,0.470875,0.470875,169.097502,36.68203359,-11.44438481,FALSE,230.6509018,233.3203361,0.682525,0.480322887,-2.147683475,-8.089369204,-7.20992103,-25.21000169
3.38876,169.179703,18.139474,3,0.627686,0.077393,-0.145569,0.760803,-2.53,1.05,-11.23,0.209303,1.041018,-11.510374,169.899397,36.949354,-11.509574,0.494875,0.494875,169.5133799,36.52381836,-11.50531131,FALSE,230.4626299,233.2175369,0.696925,0.50255417,-2.144984962,-8.077187213,-7.235294993,-25.3055622
3.397366,169.275925,18.144116,3,0.627502,0.077759,-0.14624,0.760803,-2.82,0.93,-11.36,0.396876,0.850135,-11.704136,169.854849,36.315733,-11.701992,0.476875,0.476875,169.8006861,36.38897907,-11.68888215,FALSE,230.4389697,233.0641414,0.686125,0.561106849,-2.142376574,-8.069049581,-7.25374351,-25.37503946
3.406049,169.933884,18.139474,3,0.62738,0.078064,-0.146912,0.760742,-2.48,0.91,-11.48,0.360729,1.225761,-11.710524,170.215448,36.273541,-11.71043,0.458875,0.458875,170.1074478,36.27574181,-11.70886364,FALSE,230.498636,233.0017614,0.675325,0.570619941,-2.139087432,-8.060037079,-7.272331486,-25.44506389
3.418645,170.026962,18.134832,3,0.627319,0.07843,-0.147583,0.76062,-3.16,0.4,-11.45,0.997072,0.687128,-11.822939,170.56204,35.990041,-11.821699,0.434875,0.434875,170.5374894,36.09320421,-11.81418713,FALSE,230.5026463,232.8385942,0.660925,0.608377528,-2.130536001,-8.047989704,-7.299221574,-25.54651224
3.427531,170.877975,18.139474,3,0.627319,0.078796,-0.148254,0.760437,-2.46,1.43,-11.55,-0.140315,1.214955,-11.83229,171.065068,36.159901,-11.832174,0.452875,0.452875,170.8587228,35.98952067,-11.83090115,FALSE,230.4211246,232.823895,0.671725,0.61699084,-2.12672943,-8.039538749,-7.318136604,-25.61798913
3.436405,171.066299,18.139474,3,0.627319,0.079224,-0.148987,0.760315,-3.12,0.5,-11.44,0.897201,0.741943,-11.811176,171.386199,36.056039,-11.811408,0.470875,0.470875,171.172274,35.87737547,-11.81268932,FALSE,230.3094464,232.7749299,0.682525,0.615259065,-2.123371126,-8.030855993,-7.336994301,-25.68929347
3.448857,171.536026,18.134832,3,0.62738,0.07959,-0.149658,0.760071,-3.53,0.55,-11.39,0.929924,0.353782,-11.895651,171.921237,36.017417,-11.894722,0.494875,0.494875,171.6141305,35.72485676,-11.88928617,FALSE,230.1800767,232.7251513,0.696925,0.644256849,-2.111995446,-8.024034009,-7.363363693,-25.78925122
3.457445,171.821121,18.139474,3,0.627502,0.080017,-0.15033,0.759766,-2.54,1.14,-11.41,0.158111,1.200684,-11.682153,172.17194,35.829877,-11.684495,0.512875,0.512875,171.915707,35.61646151,-11.69804428,FALSE,230.0743887,232.6782993,0.707725,0.588567676,-2.107323424,-8.017359132,-7.381481448,-25.85813296
3.466288,172.479752,18.134832,3,0.627808,0.080383,-0.151062,0.759338,-3.02,0.26,-11.35,1.11351,0.900189,-11.660214,172.66644,35.960524,-11.660481,0.530875,0.530875,172.2422003,35.52910189,-11.66311634,FALSE,230.0581301,232.724574,0.718525,0.580523758,-2.101700952,-8.008070122,-7.400091649,-25.9289894
3.478917,172.857468,18.134832,3,0.628052,0.08075,-0.151733,0.758972,-2.99,1.39,-11.34,0.004517,0.75532,-11.785481,173.230549,35.950073,-11.784104,0.554875,0.554875,172.6980722,35.39261058,-11.77609317,FALSE,230.0019969,232.7436912,0.732925,0.620675596,-2.09464117,-7.99761641,-7.426589452,-26.0300573
3.487804,173.519821,18.139474,3,0.628235,0.080994,-0.152344,0.758606,-3,0.43,-11.31,0.94676,0.909122,-11.635164,173.717809,36.100288,-11.636805,0.572875,0.572875,173.0366335,35.32095698,-11.6459761,FALSE,230.0487391,232.8534892,0.743725,0.581952945,-2.090414171,-7.990220462,-7.445185745,-26.10109926
3.496649,173.993332,18.144116,3,0.628479,0.081238,-0.153015,0.758301,-2.69,1.28,-11.35,0.062322,1.086843,-11.683837,174.19619,36.210489,-11.683318,0.592875,0.592875,173.3796008,35.25947561,-11.6809323,FALSE,230.1219653,233.0004546,0.755725,0.595103009,-2.085951506,-7.981393307,-7.463655722,-26.17173372
3.516951,173.897079,18.139474,3,0.628723,0.081543,-0.154236,0.757812,-2.89,1.81,-11.32,-0.407041,0.832737,-11.786074,174.753524,35.752552,-11.784942,0.632875,0.632875,174.0833513,35.00892827,-11.77800752,FALSE,229.925516,232.9081961,0.779725,0.634972467,-2.089450748,-7.961907651,-7.506040231,-26.33357417
3.526179,174.55217,18.125547,3,0.628906,0.081665,-0.154846,0.757568,-2.7,0.68,-11.51,0.681034,1.268622,-11.754158,174.963805,35.401478,-11.754497,0.652875,0.652875,174.4131125,34.91007811,-11.75598774,FALSE,229.8854677,232.9251133,0.791725,0.631428571,-2.088186544,-7.95221198,-7.525315849,-26.40700192
3.536014,174.178055,18.134832,3,0.629028,0.081726,-0.155334,0.757263,-3.35,1.59,-11.46,-0.080338,0.513105,-12.033771,174.852725,34.561259,-12.030693,0.632875,0.632875,174.7274819,34.75559525,-12.01245944,FALSE,229.8458631,232.7519475,0.779725,0.721014882,-2.085232622,-7.943450338,-7.545838638,-26.48516884
3.57806,174.837357,18.130189,3,0.630066,0.082153,-0.157227,0.755981,-2.99,1.34,-11.51,0.115038,0.946857,-11.929192,176.286002,34.046974,-11.930311,0.552875,0.552875,176.1065372,34.14843424,-11.9355805,FALSE,229.8289577,232.2312207,0.731725,0.72081155,-2.084503124,-7.912757556,-7.633498992,-26.81851389
3.586895,176.524521,18.102335,3,0.630554,0.082275,-0.157654,0.755493,-3.05,1.4,-11.57,0.075112,0.912703,-12.012021,176.736064,34.420004,-12.011121,0.572875,0.572875,176.4139563,34.05167399,-12.00615647,FALSE,229.7794564,232.238306,0.743725,0.748983271,-2.083663136,-7.90454295,-7.651911867,-26.88838682
3.599523,175.962448,18.11162,3,0.631165,0.082458,-0.157959,0.754883,-3.21,0.53,-11.32,0.937666,0.821433,-11.712082,176.70793,33.353855,-11.715377,0.548875,0.548875,176.7962879,33.83439711,-11.73464344,FALSE,229.6411823,231.9486776,0.729325,0.664843108,-2.077268456,-7.893593615,-7.678183989,-26.98813625
3.60839,177.280258,18.102335,3,0.631775,0.082642,-0.158325,0.754272,-3.43,1.31,-11.64,0.239468,0.617852,-12.187329,177.338705,33.81425,-12.182128,0.530875,0.530875,177.1055349,33.74361251,-12.15259891,FALSE,229.7639901,231.9781652,0.718525,0.81358055,-2.072049632,-7.887212545,-7.696579991,-27.05810046
3.617238,177.661301,18.11162,3,0.632385,0.082886,-0.15863,0.753662,-2.93,0.89,-11.35,0.533359,1.05457,-11.696252,177.824476,33.959082,-11.701607,0.548875,0.548875,177.4170666,33.65507982,-11.73126299,FALSE,229.7539056,232.0174487,0.729325,0.670766458,-2.068630646,-7.879813751,-7.71489836,-27.12785378
3.629742,177.850266,18.11162,3,0.633118,0.08313,-0.158875,0.752991,-3.05,1.71,-11.31,-0.253612,0.81631,-11.807281,178.263133,33.828891,-11.806116,0.572875,0.572875,177.8376669,33.50928468,-11.80144889,FALSE,229.6707319,231.9909459,0.743725,0.701333561,-2.066881667,-7.868117009,-7.740753583,-27.22630984
3.638588,178.323959,18.116262,3,0.634033,0.083374,-0.159119,0.752136,-3.57,1.39,-11.39,0.157025,0.418288,-12.008711,178.59719,33.770021,-12.006478,0.590875,0.590875,178.1434951,33.41833745,-11.99280982,FALSE,229.6530971,232.0186495,0.754525,0.772915454,-2.067308872,-7.862656382,-7.759039108,-27.29588706
3.64742,178.512924,18.116262,3,0.635071,0.083618,-0.159363,0.751221,-2.79,1.31,-11.35,0.087305,1.148405,-11.704552,178.846326,33.609192,-11.707879,0.608875,0.608875,178.4420248,33.31787516,-11.72666717,FALSE,229.603632,232.0106543,0.765325,0.682775428,-2.06622991,-7.855737866,-7.777292815,-27.36529948
3.65993,178.982498,18.11162,3,0.636108,0.083923,-0.159546,0.750244,-3.3,1.03,-11.21,0.435971,0.675111,-11.703381,179.344694,33.550226,-11.703431,0.632875,0.632875,178.8643386,33.17998387,-11.70516752,FALSE,229.5544392,232.0134365,0.779725,0.68073963,-2.062956819,-7.844331773,-7.803120878,-27.46350342
3.668799,179.364639,18.120904,3,0.637146,0.084167,-0.15979,0.749268,-3.15,1.38,-11.21,0.061642,0.774695,-11.699862,179.653353,33.461816,-11.699901,0.650875,0.650875,179.1687225,33.09054256,-11.70026904,FALSE,229.5463394,232.0464376,0.790525,0.682655535,-2.060750154,-7.837902608,-7.821407457,-27.53304629
3.67763,179.741562,18.120904,3,0.638123,0.084351,-0.159912,0.748352,-3.15,1.28,-11.38,0.168072,0.853363,-11.845163,179.999331,33.417445,-11.843562,0.668875,0.668875,179.4747769,33.00642606,-11.83404672,FALSE,229.5564063,232.0977988,0.801325,0.734698749,-2.059735852,-7.830713918,-7.839601463,-27.60223106
3.689981,179.741562,18.120904,3,0.63916,0.084595,-0.160034,0.747437,-3.46,0.96,-11.26,0.519519,0.572796,-11.793306,180.261954,33.10518,-11.79386,0.692875,0.692875,179.8744044,32.85065987,-11.79643163,FALSE,229.4449953,232.0271543,0.815725,0.727899128,-2.055489634,-7.821906673,-7.865015038,-27.69889382
3.698584,180.026901,18.125547,3,0.640137,0.084778,-0.160156,0.746582,-2.89,0.88,-11.21,0.494413,1.099961,-11.54713,180.410135,32.824686,-11.549849,0.674875,0.674875,180.1500236,32.740531,-11.56625645,FALSE,229.4824821,231.9713585,0.804925,0.647891477,-2.051128205,-7.814711309,-7.882679654,-27.76615474
3.707511,180.778702,18.116262,3,0.64093,0.084961,-0.160217,0.745911,-3.4,1.01,-11.24,0.448541,0.623829,-11.761305,180.915481,32.969019,-11.758975,0.694875,0.694875,180.4587708,32.65978619,-11.74634085,FALSE,229.502527,232.0376838,0.816925,0.717861901,-2.04691933,-7.807017172,-7.90097129,-27.83588232
3.720154,180.68605,18.120904,3,0.641785,0.085083,-0.160278,0.745117,-3.15,0.4,-11.36,1.012824,0.977258,-11.711171,181.198498,32.671534,-11.711698,0.718875,0.718875,180.8614318,32.49882773,-11.71386924,FALSE,229.3879157,231.9585287,0.831325,0.712832507,-2.037681311,-7.796895901,-7.926792093,-27.93452246
3.729032,181.348892,18.125547,3,0.642639,0.085144,-0.160278,0.744324,-3.07,1.06,-11.34,0.345133,0.963628,-11.751413,181.57533,32.685929,-11.750976,0.734875,0.734875,181.1594922,32.40813285,-11.74853264,FALSE,229.3883158,231.9859439,0.840925,0.729878998,-2.03165334,-7.788280308,-7.944855869,-28.00370505
3.737856,181.348892,18.125547,3,0.643677,0.085327,-0.160217,0.743469,-2.71,0.78,-11.4,0.562077,1.354797,-11.651664,181.732473,32.424925,-11.652759,0.714875,0.714875,181.4402143,32.29817359,-11.65909577,FALSE,229.438794,231.9393499,0.828925,0.700953565,-2.02765073,-7.778051417,-7.962765519,-28.07238371
3.750466,181.542099,18.134832,3,0.644714,0.085449,-0.160217,0.742554,-2.7,1.37,-11.33,-0.030286,1.272161,-11.658327,182.030139,32.152326,-11.658266,0.690875,0.690875,181.8313338,32.13088487,-11.65838599,FALSE,229.4575577,231.8342209,0.814525,0.707999688,-2.024297787,-7.761488447,-7.988313054,-28.17036051
3.759061,182.482559,18.125547,3,0.645874,0.085632,-0.160156,0.741516,-2.45,0.74,-11.44,0.554719,1.618472,-11.597257,182.568437,32.412794,-11.597929,0.708875,0.708875,182.1257345,32.05543504,-11.60194682,FALSE,229.4914967,231.9054867,0.825325,0.689616331,-2.022044037,-7.749065951,-8.005702208,-28.23701712
3.768021,182.20137,18.130189,3,0.647217,0.085815,-0.160156,0.740356,-2.95,1.24,-11.31,0.120414,1.054816,-11.705954,182.646343,32.053497,-11.704764,0.703125,0.703125,182.4020446,31.93764115,-11.69797456,FALSE,229.4704407,231.8342822,0.821875,0.73194127,-2.019019441,-7.737089621,-8.023806172,-28.30639509
3.780679,183.141342,18.120904,3,0.648621,0.085999,-0.160095,0.739075,-3.09,0.62,-11.31,0.743777,0.99423,-11.675033,183.337978,32.235356,-11.675361,0.727125,0.727125,182.8220619,31.81167641,-11.67679307,FALSE,229.479208,231.8838257,0.836275,0.729472358,-2.013549976,-7.724121209,-8.049328304,-28.4042491
3.789543,183.237717,18.125547,3,0.650024,0.086182,-0.160095,0.737854,-2.43,1.39,-11.33,-0.114028,1.5381,-11.568373,183.565074,32.052127,-11.569552,0.745125,0.745125,183.110209,31.71698469,-11.576691,FALSE,229.4604621,231.8942579,0.847075,0.694484541,-2.010758928,-7.712897922,-8.067164041,-28.47266597
3.801257,183.712204,18.130189,3,0.65155,0.086426,-0.160095,0.73645,-2.6,0.87,-11.33,0.415954,1.437773,-11.560509,184.025074,32.021231,-11.560609,0.769125,0.769125,183.4923959,31.59650871,-11.56175048,FALSE,229.4514967,231.9240812,0.861475,0.693872734,-2.008990548,-7.695468234,-8.090707714,-28.56291277
3.810021,183.993423,18.125547,3,0.653198,0.086731,-0.160095,0.734985,-2.71,1.09,-11.27,0.200213,1.298298,-11.568044,184.286914,31.894943,-11.567962,0.785125,0.785125,183.7799202,31.50971995,-11.56756116,FALSE,229.4629209,231.9584448,0.871075,0.700014653,-2.006290504,-7.683478771,-8.108302676,-28.63030331
3.818545,183.90126,18.130189,3,0.654907,0.087097,-0.160095,0.733398,-3,0.53,-11.33,0.785509,1.10676,-11.653659,184.33566,31.525601,-11.652714,0.803125,0.803125,184.0409006,31.40164644,-11.64705356,FALSE,229.3877225,231.9049705,0.881875,0.736720496,-2.002089357,-7.673228414,-8.12538639,-28.6957536
3.830908,183.716385,18.139474,3,0.656677,0.087524,-0.160095,0.731812,-2.46,1.14,-11.23,0.096011,1.528348,-11.450741,184.366013,30.978243,-11.452967,0.779125,0.779125,184.3932379,31.21181918,-11.46580213,FALSE,229.3133867,231.7071138,0.867475,0.672134279,-1.996640241,-7.656939494,-8.150104537,-28.79051703
3.839436,184.752884,18.134832,3,0.658447,0.087952,-0.160156,0.730103,-2.68,0.99,-11.2,0.258679,1.334473,-11.478443,184.854052,31.187693,-11.478163,0.761125,0.761125,184.6635848,31.12004094,-11.47747319,FALSE,229.3953926,231.7124291,0.856675,0.680870177,-1.995127843,-7.644732425,-8.167125437,-28.85576336
3.848462,185.126877,18.125547,3,0.660095,0.08844,-0.160278,0.728516,-2.61,0.69,-11.32,0.547941,1.475802,-11.530484,185.292692,31.273703,-11.529908,0.781125,0.781125,184.9529091,31.0280368,-11.526417,FALSE,229.3882121,231.7367109,0.868675,0.70501764,-1.991487567,-7.632049654,-8.185117032,-28.92470748
3.861099,184.937759,18.125547,3,0.661865,0.088989,-0.1604,0.726868,-2.83,0.94,-11.45,0.324619,1.308362,-11.754927,185.481215,30.88471,-11.752448,0.759125,0.759125,185.3242056,30.85606008,-11.73739569,FALSE,229.3735665,231.614308,0.855475,0.800526499,-1.985974296,-7.614457914,-8.210248625,-29.02104253
3.869941,185.694138,18.125547,3,0.663574,0.089478,-0.160583,0.725159,-2.34,0.86,-11.28,0.329471,1.723582,-11.41815,185.877461,30.958086,-11.421834,0.777125,0.777125,185.6013296,30.75871958,-11.44264257,FALSE,229.3487524,231.612992,0.866275,0.682402141,-1.983082564,-7.601053689,-8.227795825,-29.08831031
3.878631,185.794205,18.139474,3,0.665283,0.090088,-0.160828,0.723511,-3.44,0.8,-11.51,0.508701,0.795831,-12.002599,186.097909,30.793655,-11.996199,0.797125,0.797125,185.8646019,30.65422975,-11.95963908,FALSE,229.2880473,231.5781793,0.878275,0.904628995,-1.979440707,-7.59010684,-8.245012989,-29.1543159
3.891144,186.45372,18.134832,3,0.666992,0.090698,-0.161072,0.721802,-2.7,0.96,-11.33,0.252063,1.428335,-11.596432,186.688527,30.889244,-11.600838,0.819125,0.819125,186.2573057,30.5181103,-11.62429729,FALSE,229.2724683,231.5838192,0.891475,0.770333785,-1.974680987,-7.576191345,-8.269751951,-29.24920385
3.899785,186.45372,18.134832,3,0.668762,0.09137,-0.161316,0.720032,-2.49,0.26,-11.36,0.919745,1.688732,-11.472592,186.818761,30.598425,-11.474005,0.837125,0.837125,186.5173369,30.41353192,-11.48423085,FALSE,229.2180355,231.5474407,0.902275,0.715759953,-1.969618191,-7.562724057,-8.286793296,-29.31461153
3.908794,186.642838,18.134832,3,0.670532,0.092041,-0.161621,0.71814,-2.93,1.01,-11.36,0.202928,1.255726,-11.706233,186.992253,30.367151,-11.703674,0.817125,0.817125,186.7837128,30.30059236,-11.68920097,FALSE,229.2479187,231.4946526,0.890275,0.809388001,-1.96456111,-7.549460746,-8.304514806,-29.38268437
3.921453,186.835098,18.144116,3,0.672424,0.092834,-0.161865,0.716248,-3.01,0.5,-11.4,0.704973,1.236068,-11.715162,187.284592,30.110553,-11.715035,0.793125,0.793125,187.1502539,30.13148845,-11.71317027,FALSE,229.2444075,231.3851482,0.875875,0.828938375,-1.958814551,-7.533688936,-8.329347813,-29.47815317
3.930146,187.301895,18.130189,3,0.674377,0.093689,-0.16217,0.714233,-3.21,1.22,-11.25,-0.023372,0.986842,-11.720943,187.555947,30.023035,-11.720878,0.777125,0.777125,187.40643,30.02271459,-11.72034668,FALSE,229.263648,231.3362814,0.866275,0.83810425,-1.955851972,-7.524027058,-8.346362911,-29.54360153
3.938963,187.494675,18.139474,3,0.67627,0.094543,-0.162537,0.712219,-2.04,0.73,-11.25,0.369859,2.117129,-11.253338,187.7848,29.87938,-11.25849,0.757125,0.757125,187.6622045,29.90863504,-11.28916696,FALSE,229.2786232,231.2731178,0.854275,0.653897659,-1.954324484,-7.510343202,-8.363600924,-29.60988055
3.951365,187.39827,18.134832,3,0.678223,0.095398,-0.162903,0.710205,-3.07,0.49,-11.24,0.66325,1.179989,-11.583201,187.930406,29.470128,-11.579623,0.733125,0.733125,188.0015503,29.72809843,-11.56064268,FALSE,229.2173587,231.1097917,0.839875,0.783337692,-1.947918175,-7.489897773,-8.38779873,-29.70289704
3.960146,188.624832,18.130189,3,0.680237,0.096375,-0.163208,0.708069,-2.96,0.93,-11.06,0.186917,1.228288,-11.419569,188.591825,29.940569,-11.421333,0.751125,0.751125,188.2796455,29.64955421,-11.43039219,FALSE,229.2525112,231.1699858,0.850675,0.728902728,-1.944185517,-7.479324233,-8.404887012,-29.76861941
3.972144,188.628494,18.139474,3,0.682312,0.097351,-0.163635,0.705872,-2.71,1.09,-11.07,0.001535,1.486994,-11.351933,188.97152,29.83103,-11.352698,0.775125,0.775125,188.6342648,29.51209747,-11.3579524,FALSE,229.2027334,231.1444235,0.865075,0.702818556,-1.943054993,-7.463035256,-8.428206567,-29.85825863
3.981021,189.288712,18.134832,3,0.684448,0.09845,-0.16394,0.703552,-2.88,0.49,-11.24,0.603581,1.422326,-11.510217,189.420018,29.98971,-11.508481,0.791125,0.791125,188.9147602,29.43599937,-11.49853524,FALSE,229.2543954,231.2150792,0.874675,0.770616547,-1.940369186,-7.450122239,-8.445443146,-29.92445068
3.989865,189.569595,18.130189,3,0.686768,0.099609,-0.164368,0.700989,-2.76,0.94,-10.93,0.106969,1.444617,-11.219069,189.771305,29.999966,-11.222258,0.811125,0.811125,189.1936368,29.35930685,-11.24050968,FALSE,229.2948571,231.2829354,0.886675,0.656273663,-1.937227134,-7.437444617,-8.462589877,-29.9902835
4.002085,190.040176,18.125547,3,0.689209,0.10083,-0.164734,0.698303,-3.63,0.37,-10.97,0.684942,0.676679,-11.5207,190.292909,30.045668,-11.517411,0.833125,0.833125,189.5751808,29.25269657,-11.49920376,FALSE,229.3603096,231.3719054,0.899875,0.780613392,-1.932388558,-7.424483499,-8.486233228,-30.08108988
4.010684,190.329971,18.139474,3,0.691772,0.102173,-0.1651,0.695496,-3.1,0.92,-10.87,0.089821,1.165288,-11.280378,190.572359,29.979076,-11.28299,0.851125,0.851125,189.8505383,29.18569059,-11.29716633,FALSE,229.4287311,231.4638326,0.910675,0.69040729,-1.929057464,-7.416563962,-8.502835516,-30.14489896
4.019488,190.326309,18.130189,3,0.694336,0.103516,-0.165405,0.692688,-3.12,0.72,-11,0.276681,1.221171,-11.387928,190.693646,29.70137,-11.386772,0.869125,0.869125,190.1175649,29.09989968,-11.38096475,FALSE,229.4434391,231.4965198,0.921475,0.733616733,-1.927444122,-7.406058769,-8.519811836,-30.21014815
4.031945,190.989273,18.134832,3,0.696838,0.104919,-0.16571,0.68988,-3.12,0.37,-10.93,0.594555,1.215635,-11.2918,191.234143,29.764494,-11.292846,0.893125,0.893125,190.503781,28.99052916,-11.29864072,FALSE,229.5076597,231.5848285,0.935875,0.70042781,-1.922017629,-7.390881123,-8.543788208,-30.30231089
4.040836,190.518631,18.139474,3,0.699341,0.106323,-0.166077,0.687073,-3.14,1.13,-11.04,-0.176548,1.292201,-11.459382,191.082826,29.06791,-11.457547,0.911125,0.911125,190.7494349,28.87468625,-11.44704991,FALSE,229.4305587,231.5159738,0.946675,0.776449374,-1.920159379,-7.379732538,-8.560868606,-30.36797365
4.049676,190.893356,18.130189,3,0.701843,0.107727,-0.166382,0.684204,-3.31,0.08,-10.98,0.83836,1.103195,-11.384338,191.229751,28.827085,-11.385145,0.931125,0.931125,190.9989283,28.76659021,-11.38914927,FALSE,229.3739003,231.4729471,0.958675,0.754626724,-1.91723417,-7.369144888,-8.577829885,-30.43316369
4.062208,191.178452,18.134832,3,0.704285,0.10907,-0.166748,0.681396,-2.35,0.45,-11,0.463225,2.041016,-11.060962,191.560387,28.652528,-11.064534,0.953125,0.953125,191.3498597,28.61274912,-11.08614057,FALSE,229.3056623,231.4091625,0.971875,0.616403524,-1.909078438,-7.349443261,-8.60180556,-30.52539036
4.070797,192.027542,18.130189,3,0.706665,0.110474,-0.167114,0.678589,-4.26,0.4,-10.86,0.439588,0.252228,-11.66148,192.077318,28.945179,-11.654902,0.971125,0.971125,191.6159553,28.54436417,-11.61733989,FALSE,229.369728,231.4915127,0.982675,0.877172197,-1.905201308,-7.339594925,-8.618185985,-30.58847244
4.079722,192.123978,18.134832,3,0.709167,0.111816,-0.167419,0.675659,-3.16,-0.14,-11.04,0.995111,1.329898,-11.363418,192.362183,28.87794,-11.36663,0.991125,0.991125,191.8823938,28.45675219,-11.38289891,FALSE,229.3848937,231.5230871,0.994675,0.768096737,-1.898798964,-7.332534688,-8.635161336,-30.65394681
4.092305,191.938431,18.144116,3,0.711731,0.113281,-0.167725,0.672668,-4.08,0.72,-11.17,0.089549,0.61996,-11.89712,192.478785,28.430643,-11.891275,1,1,192.2250593,28.29392673,-11.8576689,FALSE,229.3197473,231.4308848,1,1.011484093,-1.891974825,-7.320267156,-8.659010989,-30.74613492
4.101174,192.216751,18.130189,3,0.714539,0.114746,-0.16803,0.669373,-2.87,-0.62,-10.99,1.43168,1.591535,-11.172256,192.578253,28.109937,-11.18018,0.982,0.982,192.4631134,28.17291138,-11.22484096,FALSE,229.3037315,231.347106,0.9892,0.704903939,-1.885228935,-7.310460282,-8.675760999,-30.81101488
4.110043,192.976822,18.139474,3,0.717285,0.116211,-0.168274,0.666077,-4.45,1.55,-11.16,-0.824784,0.416925,-12.078748,193.057688,28.300868,-12.068846,1,1,192.7251803,28.08936685,-12.01323615,FALSE,229.3319696,231.3876747,1,1.104238589,-1.882537655,-7.301553766,-8.69246916,-30.87581185
4.122506,192.695328,18.144116,3,0.720154,0.117676,-0.168518,0.662659,-2.44,0.3,-11.08,0.504546,2.148727,-11.132754,193.199311,27.905715,-11.143069,0.976,0.976,193.0560856,27.91638718,-11.2003047,FALSE,229.2971283,231.2617436,0.9856,0.705468027,-1.884533218,-7.285565905,-8.715943662,-30.96671149
4.131097,193.069077,18.134832,3,0.723022,0.119202,-0.168762,0.65918,-4.48,0.75,-11.27,-0.097393,0.436879,-12.142686,193.36297,27.691376,-12.131671,0.96,0.96,193.2846413,27.80523574,-12.0703864,FALSE,229.291667,231.198018,0.976,1.156152956,-1.882784292,-7.274459435,-8.732126175,-31.02925408
4.142969,193.53981,18.130189,3,0.725952,0.120605,-0.168884,0.655701,-3.65,0.32,-11.03,0.339185,1.08367,-11.567053,193.793564,27.684278,-11.573275,0.984,0.984,193.6103288,27.65766786,-11.6056688,FALSE,229.2242002,231.1372008,0.9904,0.928284062,-1.881349015,-7.265433456,-8.75447007,-31.11556288
4.15177,194.204025,18.134832,3,0.728882,0.12207,-0.169067,0.652161,-2.94,-0.66,-11.1,1.351997,1.670382,-11.299236,194.275076,27.926199,-11.302256,1,1,193.8701321,27.5779401,-11.32274556,FALSE,229.2674211,231.1889147,1,0.786553032,-1.873906968,-7.25331425,-8.770995074,-31.17945263
4.160586,194.582535,18.134832,3,0.731995,0.123535,-0.169128,0.648315,-4.35,1.28,-11.1,-0.742397,0.65968,-11.949246,194.698625,28.048485,-11.942117,1,1,194.1352938,27.50726739,-11.90118081,FALSE,229.3666163,231.2700497,1,1.092905113,-1.871219852,-7.243043337,-8.787503593,-31.24335258
4.173058,194.204025,18.134832,3,0.735352,0.125061,-0.169128,0.644226,-3.77,-0.1,-11.17,0.65248,1.062241,-11.723396,194.760645,27.55427,-11.725806,1,1,194.4642757,27.34157714,-11.73703568,FALSE,229.3076209,231.1691708,1,1.019361911,-1.871780574,-7.232305437,-8.810844944,-31.33362085
4.181919,194.679001,18.139474,3,0.738892,0.126648,-0.169006,0.639893,-4.02,0.61,-10.98,-0.138572,0.891457,-11.673877,194.956915,27.381811,-11.67445,1,1,194.7047888,27.23590271,-11.67872254,FALSE,229.3015174,231.1366884,1,0.99620117,-1.869503705,-7.223649578,-8.827420704,-31.39766796
4.190719,195.057022,18.139474,3,0.742554,0.128235,-0.168823,0.635315,-3.96,-0.67,-11.25,1.111146,0.883787,-11.860693,195.255331,27.352505,-11.858641,1,1,194.9494185,27.14013001,-11.8467322,FALSE,229.323199,231.1346859,1,1.093442259,-1.865224379,-7.215838505,-8.843853507,-31.46120171
4.202963,195.532028,18.144116,3,0.746277,0.129761,-0.16864,0.630737,-4.46,-0.28,-11.13,0.597771,0.472068,-11.969448,195.749818,27.401855,-11.968227,1,1,195.292919,27.01097722,-11.96003323,FALSE,229.3668939,231.1467765,1,1.165333817,-1.854762389,-7.207537961,-8.866627266,-31.54950162
4.211764,195.430832,18.130189,3,0.749695,0.131226,-0.168518,0.626343,-4.31,-0.08,-10.93,0.360142,0.58638,-11.729155,195.80529,27.031011,-11.73179,1,1,195.5254161,26.8995809,-11.74686801,FALSE,229.3415893,231.0945196,1,1.058509522,-1.850547093,-7.20288026,-8.882932481,-31.61291466
