time,altitude,Temperature (deg C),Mode,IMU Quat W,IMU Quat X,IMU Quat Y,IMU Quat Z,IMU Local Acceleration X,IMU Local Acceleration Y,IMU Local Acceleration Z,accel_x,accel_y,accel,State Estimation y,State Estimation v,State Estimation a,Commanded servo deployment,deployment,filtered_altitude,filtered_velocity,filtered_accel,saturated,predicted_apogee,predicted_apogee_no_brake,cd_total,cd_calculated,integrated_vx,integrated_vy,integrated_x,integrated_y
0,-0.43305,19.156082,2,-0.384155,0.002808,-0.004639,-0.923218,-1.39,3.92,77.05,-1.92592,-2.922113,77.082748,0.109989,1.176394,76.365948,0,0,-0.430326838,0.605755308,75.71979175,FALSE,-0.411624871,-0.411624871,0.4,,0,0,0,0
0.008964,-1.643637,19.151441,2,-0.384155,0.002808,-0.004639,-0.923218,-3.31,-3.71,73.37,4.84537,1.053281,73.370869,-0.442637,1.083554,73.403873,0,0,-0.535011922,1.279262154,73.55026603,FALSE,-0.451608533,-0.451608533,0.4,,0.013084975,-0.008376105,5.86E-05,-3.75E-05
0.021512,-1.36376,19.156082,2,-0.384277,0.002808,-0.004639,-0.923218,1.34,-1.21,82.78,-0.219748,2.691048,82.755656,-0.720614,1.739511,82.652602,0,0,-0.586030143,2.208647445,82.04943613,FALSE,-0.337462097,-0.337462097,0.4,,0.042106127,0.015115815,0.000404916,4.74E-06
0.030385,-1.829352,19.151441,2,-0.384521,0.00293,-0.004272,-0.923096,-1.92,-1.68,83.6,2.367343,0.667917,83.60274,-1.061306,1.977877,83.59227,0,0,-0.664438487,2.932909581,83.48357035,FALSE,-0.226203485,-0.226203485,0.4,,0.051633933,0.030017863,0.000820794,0.000204979
0.039094,-1.642599,19.160724,2,-0.381226,0.003784,-0.003845,-0.924438,-5.75,-0.51,86.38,4.086289,-2.827633,86.429905,-1.228481,2.480116,86.398635,0,0,-0.711292988,3.657327542,86.20386185,FALSE,-0.03000407,-0.03000407,0.4,,0.079736273,0.02061338,0.001392845,0.000425453
0.051621,-0.991797,19.156082,2,-0.377502,0.004395,-0.003662,-0.925964,0.32,0.98,88.56,-1.389781,0.417586,88.55411,-1.113888,3.687178,88.530357,0,0,-0.682313489,4.737473845,88.37379868,FALSE,0.460290819,0.460290819,0.4,,0.096625851,0.005518051,0.002497489,0.000589127
0.060325,-0.527716,19.142157,2,-0.373779,0.004333,-0.003845,-0.92749,-3.38,0.55,90.44,1.586912,-1.80163,90.472956,-0.888431,4.740226,90.451549,0,0,-0.630323283,5.5088441,90.31190841,FALSE,0.914033875,0.914033875,0.4,0,0.097483765,-0.000505309,0.003342254,0.000610942
0.069257,-1.550512,19.146799,2,-0.367676,0.004211,-0.004333,-0.929932,0.19,-2.2,89.98,0.947828,2.738869,89.960417,-1.056223,5.260434,89.965829,0,0,-0.639898813,6.308159132,89.98738345,FALSE,1.384157402,1.384157402,0.4,0,0.108803914,0.003680401,0.004263535,0.000625122
0.081805,-1.178045,19.156082,2,-0.357666,0.004456,-0.004883,-0.933838,-3.06,1.05,91.4,1.134316,-1.700479,91.434394,-1.022437,6.357206,91.418211,0,0,-0.591995923,7.433323452,91.32337917,FALSE,2.216286587,2.216286587,0.4,0,0.121867285,0.010195259,0.005710766,0.000712178
0.090644,-0.80657,19.146799,2,-0.34436,0.0047,-0.005249,-0.938782,0.73,1.27,90.98,-1.851851,0.69449,90.970293,-0.892722,7.259279,90.975229,0,0,-0.539470403,8.237635405,90.99738181,FALSE,2.907209426,2.907209426,0.4,0,0.118696139,0.005749291,0.006773936,0.000782645
0.099414,-0.80657,19.146799,2,-0.330444,0.004883,-0.005737,-0.943787,-3.11,4.33,92.26,-0.770968,-4.026747,92.322902,-0.797691,8.106041,92.308051,0,0,-0.483212971,9.033119207,92.22120793,FALSE,3.658381848,3.658381848,0.4,0,0.107195078,-0.008862656,0.007764469,0.000768993
0.111853,-0.619299,19.156082,2,-0.316223,0.005127,-0.006531,-0.948669,10.86,-2.76,81.26,-7.487048,9.993468,81.073049,-0.632881,9.188822,81.196856,0,0,-0.377847615,10.16694477,81.92833705,FALSE,4.862891898,4.862891898,0.4,0,0.055834348,0.028247365,0.008778431,0.000889556
0.120618,-0.62084,19.146799,2,-0.298401,0.005554,-0.007263,-0.954407,0.08,4.95,77.87,-3.37366,-2.684863,77.908004,-0.545452,9.877001,77.944246,0,0,-0.303486974,10.87818758,78.21644442,FALSE,5.691591577,5.691591577,0.4,0,0.008237295,0.060277327,0.009059225,0.001277516
0.129574,-0.898672,19.160724,2,-0.276917,0.006226,-0.007446,-0.960876,-0.32,5.28,81.13,-3.175447,-3.199852,81.177214,-0.567766,10.452679,81.141587,0,0,-0.23899279,11.57171697,80.95006341,FALSE,6.539524833,6.539524833,0.4,0,-0.021089606,0.033925573,0.009001672,0.001699356
0.142213,0.03158,19.151441,2,-0.259399,0.006836,-0.006653,-0.965698,6.94,-4.8,77.49,-4.355115,8.899986,77.315664,-0.235494,11.678888,77.357824,0,0,-0.080329047,12.59309283,77.59449555,FALSE,7.937589705,7.937589705,0.4,0,-0.068678993,0.06994757,0.008434379,0.002355782
0.150928,-0.526693,19.151441,2,-0.250061,0.006653,-0.006897,-0.968201,6.99,-2.16,88.56,-5.904989,6.751265,88.407915,-0.22474,12.317081,88.286146,0,0,0.004773132,13.26833716,87.57830819,FALSE,8.897743335,8.897743335,0.4,0,-0.113387396,0.138147896,0.007641025,0.003262558
0.162744,0.217325,19.151441,2,-0.253601,0.005859,-0.007507,-0.967285,-1.96,0.28,80.77,0.962529,0.207699,80.788265,0.069729,13.46209,80.870889,0,0,0.170033921,14.29793598,81.30919791,FALSE,10.48194691,10.48194691,0.4,0,-0.14258745,0.179261455,0.006128726,0.005137813
0.171332,0.309946,19.146799,2,-0.263672,0.005249,-0.008057,-0.964539,6.94,-0.04,92.82,-6.499114,5.263354,92.702566,0.266621,14.367831,92.572184,0,0,0.296533094,15.00416957,91.82846547,FALSE,11.64048558,11.64048558,0.4,0,-0.166361546,0.202754157,0.004802099,0.006778188
0.17992,0.497751,19.156082,2,-0.276123,0.005371,-0.008545,-0.96106,13.6,1,88.66,-12.552642,8.08867,88.450814,0.467841,15.226252,88.49623,0,0,0.431980943,15.79179744,88.70994782,FALSE,12.98287653,12.98287653,0.4,0,-0.248169786,0.260087748,0.003022101,0.008765631
0.192385,0.218347,19.160724,2,-0.289368,0.006042,-0.008911,-0.957153,4.53,-0.92,91.21,-3.845901,5.149502,91.100616,0.584055,16.259528,91.071916,0,0,0.616532833,16.89171134,90.91720365,FALSE,14.95084977,14.95084977,0.4,0,-0.350373705,0.342594655,-0.000708321,0.012521849
0.201267,0.497751,19.156082,2,-0.2995,0.006836,-0.008728,-0.954041,-3.67,0.33,90.96,2.111861,-0.480329,91.008842,0.704107,17.029049,91.009537,0,0,0.757806484,17.69380747,91.00181149,FALSE,16.46398493,16.46398493,0.4,0,-0.358074577,0.363330452,-0.00385454,0.015656863
0.210106,1.427622,19.156082,2,-0.313354,0.007141,-0.009277,-0.949585,2.59,-2.8,92.03,-1.127671,5.824242,91.917784,1.091747,18.151435,91.907776,0,0,0.940556364,18.50948663,91.84751049,FALSE,18.10294031,18.10294031,0.4,0,-0.353724949,0.386947876,-0.007000338,0.018972718
0.222568,0.869272,19.156082,2,-0.33728,0.005798,-0.011108,-0.941284,-1.93,3.73,92.18,-1.193843,-1.816896,92.249995,1.253143,19.209019,92.246224,0,0,1.164657353,19.6475169,92.21911634,FALSE,20.46065757,20.46065757,0.4,0,-0.368190303,0.411917649,-0.011498592,0.023950449
0.231142,1.520243,19.151441,2,-0.361267,0.0047,-0.012329,-0.932373,-9.47,6.13,90.63,2.880565,-8.515304,90.885914,1.5077,20.109091,90.900904,0,0,1.344552314,20.4415638,90.98819744,FALSE,22.19884618,22.19884618,0.4,0,-0.360959326,0.367623507,-0.014624456,0.027292342
0.24016,1.984949,19.146799,2,-0.380981,0.003906,-0.013306,-0.9245,-3.76,1.47,88.93,1.892299,-1.23858,88.992865,1.846682,21.115017,89.013891,0,0,1.552220369,21.27159395,89.14594714,FALSE,24.09589091,24.09589091,0.4,0,-0.339438482,0.323643244,-0.01778255,0.030409263
0.252825,2.450708,19.151441,2,-0.401794,0.003235,-0.013245,-0.915588,-2.28,3.51,90.1,-0.61411,-1.63285,90.180281,2.316822,22.507563,90.167427,0,0,1.855652536,22.41755313,90.1009268,FALSE,26.83210348,26.83210348,0.4,0,-0.33134435,0.305459914,-0.022030282,0.034393059
0.261662,2.358072,19.156082,2,-0.419006,0.003662,-0.013,-0.907898,-4.93,1.48,89.9,2.454504,-2.312233,89.984088,2.532609,23.321557,89.986109,0,0,2.070168567,23.2216352,89.99305189,FALSE,28.82228804,28.82228804,0.4,0,-0.323212569,0.288028565,-0.024922442,0.037015388
0.2705,2.357553,19.146799,2,-0.430054,0.004211,-0.012512,-0.90271,-0.24,2.55,89.35,-1.546731,0.549725,89.371629,2.685679,24.035793,89.3784,0,0,2.28226155,24.01870866,89.41930464,FALSE,30.84976151,30.84976151,0.4,0,-0.31920112,0.280240042,-0.027761268,0.039526567
0.282817,3.289118,19.156082,2,-0.440552,0.005249,-0.011963,-0.897644,-2.93,0.63,88.49,1.39311,-0.392573,88.528907,3.1837,25.377359,88.538269,0,0,2.614806723,25.13948328,88.59721842,FALSE,33.82668568,33.82668568,0.4,0,-0.320147195,0.281207862,-0.031698695,0.042984244
0.291443,3.940241,19.151441,2,-0.450867,0.006775,-0.011169,-0.892456,-0.06,2.11,88.87,-1.84235,1.015067,88.870173,3.650982,26.486208,88.866516,0,0,2.881664281,25.93641841,88.8492319,FALSE,36.03821295,36.03821295,0.4,0,-0.322084767,0.283892679,-0.034468641,0.045421523
0.300461,3.382791,19.160724,2,-0.46106,0.008606,-0.010193,-0.887268,-1.63,0.46,88.14,0.042713,0.696038,88.153513,3.806858,27.166712,88.16137,0,0,3.130260045,26.74514321,88.20688864,FALSE,38.31417679,38.31417679,0.4,0,-0.330199331,0.291608051,-0.03740979,0.048016455
0.313116,3.848108,19.156082,2,-0.471069,0.010864,-0.008911,-0.881958,0.27,1.13,87.66,-2.033181,1.871229,87.624139,4.17102,28.292743,87.63006,0,0,3.491465999,27.8726985,87.66884763,FALSE,41.59138397,41.59138397,0.4,0,-0.342794017,0.307852433,-0.041668156,0.051809542
0.321972,4.684565,19.151441,2,-0.480957,0.013489,-0.007446,-0.876648,-1.03,1.02,87.43,-1.74855,0.859368,87.420308,4.591525,29.30128,87.42262,0,0,3.781328453,28.67960417,87.439376,FALSE,44.03094574,44.03094574,0.4,0,-0.359539522,0.319943517,-0.044778088,0.054589422
0.330833,5.522654,19.146799,2,-0.490601,0.016418,-0.005737,-0.871216,0.22,1.81,87.53,-3.672896,1.534522,87.458451,5.155341,30.479017,87.458056,0,0,4.10100692,29.5037769,87.45698758,FALSE,46.59968898,46.59968898,0.4,0,-0.383559238,0.330549647,-0.048070388,0.057471432
0.35109,5.523172,19.156082,2,-0.509338,0.023254,-0.001587,-0.860229,0.31,1.98,86.06,-5.187998,1.592721,85.912088,5.910633,32.372871,85.929124,0,0,4.750892415,31.30267733,86.03061291,FALSE,52.34212987,52.34212987,0.4,0,-0.473306803,0.362223927,-0.056749155,0.064488189
0.360297,6.267099,19.146799,2,-0.518372,0.0271,0.000793,-0.854736,-0.07,2.17,85.85,-5.938266,1.229626,85.663072,6.330176,33.360335,85.666004,0,0,5.094726789,32.14019385,85.6912698,FALSE,55.14102608,55.14102608,0.4,0,-0.524526559,0.375216602,-0.061342681,0.067882997
0.37006,6.639337,19.146799,2,-0.527222,0.03125,0.003418,-0.849182,0.57,2.15,85.75,-7.036894,1.883338,85.468992,6.761216,34.350218,85.471163,0,0,5.464661197,33.0234116,85.48604519,FALSE,58.1566131,58.1566131,0.4,0,-0.587864803,0.390412535,-0.06677282,0.071620415
0.384302,6.919428,19.151441,2,-0.535767,0.035583,0.006226,-0.843567,0.71,3.33,85.11,-8.986345,1.575574,84.688039,7.31091,35.631304,84.696669,0,0,5.985388493,34.27909916,84.74926215,FALSE,62.5368577,62.5368577,0.4,0,-0.701966288,0.415043448,-0.075957707,0.077356067
0.392898,8.222681,19.142157,2,-0.544067,0.040222,0.009216,-0.838013,0.99,3.42,83.91,-10.014871,1.885288,83.36492,7.919019,36.814948,83.379595,0,0,6.365984144,35.08510048,83.47112691,FALSE,65.45433466,65.45433466,0.4,0,-0.783633514,0.429918233,-0.082342815,0.080987713
0.401744,8.501779,19.146799,2,-0.552124,0.044983,0.012451,-0.832458,1.16,4.17,84.07,-11.728785,1.874394,83.339203,8.437307,37.822284,83.339648,0,0,6.757314649,35.89802098,83.34932423,FALSE,68.45054693,68.45054693,0.4,0,-0.879805705,0.446547306,-0.089700206,0.08486432
0.413879,9.154261,19.151441,2,-0.559814,0.049744,0.015869,-0.826965,1.34,4.47,84.25,-13.05352,2.057872,83.337913,9.135252,39.145004,83.337932,0,0,7.282887239,36.99213189,83.3387885,FALSE,72.55392032,72.55392032,0.4,0,-1.03017234,0.47040633,-0.101288998,0.090427936
0.422717,9.898447,19.142157,2,-0.567017,0.054626,0.019348,-0.821655,1.55,4.9,83.05,-14.376899,2.206373,81.927696,9.732161,40.218582,81.943237,0,0,7.710955992,37.82538827,82.0359552,FALSE,75.76102272,75.76102272,0.4,0,-1.151387362,0.489250029,-0.11092931,0.094668657
0.431409,9.993219,19.156082,2,-0.57373,0.05957,0.022827,-0.816528,1.6,4.82,82.03,-15.166732,2.411283,80.739434,10.169125,41.032735,80.7527,0,0,8.126289523,38.62177798,80.83890327,FALSE,78.87538797,78.87538797,0.4,0,-1.279783982,0.509318362,-0.121495181,0.099008436
0.44368,10.645273,19.151441,2,-0.579834,0.064392,0.026367,-0.811768,1.65,5.83,81.66,-17.029237,2.259112,80.062314,10.832676,42.210558,80.069922,0,0,8.694108264,39.70381904,80.12189405,FALSE,83.17622938,83.17622938,0.4,0,-1.47732235,0.53797357,-0.138411407,0.105434095
0.452454,11.669275,19.146799,2,-0.585266,0.069153,0.029785,-0.807312,1.9,6.02,81.39,-18.169328,2.592589,79.544447,11.476971,43.279878,79.550238,0,0,9.158484619,40.52427419,79.58874883,FALSE,86.52071239,86.52071239,0.4,0,-1.631738455,0.559257983,-0.152050857,0.11024765
0.461253,11.856272,19.156082,2,-0.590088,0.073853,0.033203,-0.803284,1.55,6.81,81.09,-19.675137,2.166368,78.946656,11.983187,44.134005,78.953307,0,0,9.618749577,41.33013414,78.99591746,FALSE,89.85056453,89.85056453,0.4,0,-1.798235178,0.580195014,-0.167141026,0.115260673
0.473879,12.228708,19.156082,2,-0.594238,0.07843,0.036438,-0.799622,2.01,7.32,79.58,-20.908193,2.571325,77.115697,12.625944,45.207248,77.135947,0,0,10.23714927,42.42309194,77.25994777,FALSE,94.42393763,94.42393763,0.4,0,-2.054437741,0.61010407,-0.19146295,0.122775032
0.482737,13.160654,19.156082,2,-0.597534,0.082886,0.03949,-0.79657,2.08,7.5,79.8,-21.960146,2.756868,77.063403,13.2026,46.128174,77.064203,0,0,10.72630651,43.22723324,77.07848196,FALSE,97.86827903,97.86827903,0.4,0,-2.244301614,0.633702637,-0.210502067,0.128283851
0.491421,13.625879,19.151441,2,-0.599976,0.087158,0.042236,-0.794128,2.18,8.06,79.53,-23.238533,2.847683,76.463011,13.74261,46.971195,76.469636,0,0,11.21389071,44.01579277,76.51023002,FALSE,101.2902533,101.2902533,0.4,0,-2.440554278,0.658037597,-0.230843711,0.133892588
0.503889,14.651728,19.156082,2,-0.601501,0.091309,0.044678,-0.792419,2.51,8,78.82,-23.855583,3.309901,75.517523,14.627975,48.281558,75.528015,0,0,11.89458729,45.10946736,75.59368364,FALSE,106.0991284,106.0991284,0.4,0,-2.734138998,0.696423976,-0.263102749,0.142336301
0.512493,15.489588,19.151441,2,-0.60199,0.095215,0.046692,-0.791443,2.43,8.55,78.4,-24.919257,3.214089,74.79494,15.325037,49.307759,74.803018,0,0,12.42542488,45.91645227,74.85621973,FALSE,109.7184888,109.7184888,0.4,0,-2.943968359,0.724490181,-0.287529967,0.148449074
0.524502,15.769907,19.156082,2,-0.601379,0.098938,0.048218,-0.791321,2.9,9.21,77.16,-25.980106,3.576829,73.205904,16.066484,50.373274,73.223504,0,0,13.10481826,46.95390547,73.33251646,FALSE,114.4200666,114.4200666,0.4,0,-3.249593584,0.765266248,-0.324719209,0.157394316
0.533187,17.167032,19.151441,2,-0.599609,0.102417,0.049316,-0.792175,2.97,9.13,77.78,-26.574164,3.806701,73.628961,16.863177,51.50462,73.624493,0,0,13.67591128,47.77519223,73.60621777,FALSE,118.2154358,118.2154358,0.4,0,-3.477810502,0.797329227,-0.353932961,0.164179887
0.542025,17.446909,19.156082,2,-0.596619,0.105591,0.049866,-0.794006,3.79,9.13,76.86,-27.02274,4.642792,72.480564,17.50951,52.391397,72.493169,0,0,14.2481219,48.59462935,72.56692432,FALSE,122.0391505,122.0391505,0.4,0,-3.714655221,0.834667536,-0.385716468,0.171391681
0.554509,18.379312,19.156082,2,-0.592407,0.108521,0.049927,-0.796692,3.41,9.21,74.77,-26.881371,4.222866,70.331363,18.450255,53.623651,70.355185,0,0,15.01641757,49.68142334,70.50287558,FALSE,127.1715799,127.1715799,0.4,0,-4.051124681,0.890006974,-0.434190466,0.182157099
0.563396,19.217478,19.151441,2,-0.586914,0.111145,0.0495,-0.800476,4.12,9.27,74.49,-27.37111,4.893107,69.846846,19.178042,54.58635,69.852447,0,0,15.62727067,50.50369036,69.8971767,FALSE,131.1225157,131.1225157,0.4,0,-4.292195581,0.9305138,-0.471264009,0.190246583
0.571993,19.125711,19.156082,2,-0.579956,0.113403,0.048462,-0.805237,4.06,9.1,74.15,-27.333871,4.868005,69.474034,19.633007,55.161436,69.478204,0,0,16.19969766,51.26463325,69.50649758,FALSE,134.8144545,134.8144545,0.4,0,-4.527344942,0.97247194,-0.509174804,0.198426567
0.584363,19.964975,19.160724,2,-0.571655,0.115234,0.046936,-0.811035,4.7,8.82,74.24,-27.447604,5.520409,69.481416,20.427948,56.155562,69.481381,0,0,16.97880222,52.29188269,69.48334031,FALSE,139.847159,139.847159,0.4,0,-4.866168365,1.03672428,-0.567273684,0.210853446
0.592854,20.245432,19.165366,2,-0.562195,0.116638,0.044922,-0.817505,4.71,8.5,72.83,-26.89624,5.488366,68.155064,20.848168,56.653261,68.16968,0,0,17.55117991,53.0322429,68.25696954,FALSE,143.5145855,143.5145855,0.4,0,-5.096885154,1.083462034,-0.609571828,0.219854697
0.601923,21.176523,19.156082,2,-0.551758,0.117554,0.04248,-0.824585,5.32,8.11,71.47,-26.438368,6.015499,66.83459,21.470571,57.396446,66.849302,0,0,18.17521502,53.81953509,66.94371515,FALSE,147.4561546,147.4561546,0.4,0,-5.338730934,1.13562631,-0.656892129,0.229917153
0.614545,21.083719,19.160724,2,-0.540466,0.117981,0.039734,-0.832153,5.71,7.39,71.27,-25.849521,6.515102,66.753782,22.075254,58.081249,66.754835,0,0,18.96003807,54.78691394,66.76835373,FALSE,152.3534838,152.3534838,0.4,0,-5.668719802,1.214706933,-0.72636015,0.244750106
0.623411,22.201578,19.151441,2,-0.528381,0.117859,0.036743,-0.839966,5.86,6.89,70.36,-25.143892,6.648777,65.999171,22.633721,58.723048,66.007498,0,0,19.57239534,55.53042504,66.05818281,FALSE,156.1529737,156.1529737,0.4,0,-5.894773602,1.273062409,-0.777621117,0.255778388
0.63207,21.922098,19.156082,2,-0.515625,0.117249,0.033569,-0.848083,5.42,6.41,69.94,-24.27487,6.270251,65.829118,22.915046,58.989901,65.831084,0,0,20.13970932,56.20547507,65.84669189,FALSE,159.6332529,159.6332529,0.4,0,-6.108732132,1.32899534,-0.829590295,0.267043997
0.644592,22.670298,19.165366,2,-0.502197,0.115967,0.030212,-0.856384,5.25,5.64,69.19,-23.11433,6.246821,65.370468,23.579706,59.708563,65.375544,0,0,20.93136222,57.13244416,65.40700398,FALSE,164.4540852,164.4540852,0.4,0,-6.405435913,1.407364728,-0.907941501,0.284176347
0.653185,23.69343,19.151441,2,-0.488403,0.114197,0.026855,-0.864685,5.08,4.96,68.87,-22.090373,6.219316,65.320789,24.132017,60.3208,65.321393,0,0,21.52758776,57.82252206,65.32740344,FALSE,168.0711351,168.0711351,0.4,0,-6.599657919,1.460925486,-0.963817887,0.296499956
0.662215,23.600595,19.156082,2,-0.474487,0.111755,0.023682,-0.872803,5.11,4.98,67.41,-21.444903,5.890112,64.034552,24.507879,60.674756,64.048733,0,0,22.122589,58.49913616,64.13373973,FALSE,171.6452193,171.6452193,0.4,0,-6.79621969,1.515599553,-1.024300274,0.309938966
0.674855,24.254557,19.160724,2,-0.460632,0.108826,0.020752,-0.880676,4.21,3.72,66.65,-19.375183,5.542221,63.778503,25.197952,61.376871,63.781481,0,0,22.93060579,59.38958714,63.80575683,FALSE,176.3990839,176.3990839,0.4,0,-7.054202634,1.587851898,-1.111834943,0.32955278
0.683676,24.627451,19.160724,2,-0.447021,0.105408,0.018005,-0.888123,4.19,3.33,66.24,-18.5224,5.469605,63.587733,25.556947,61.68027,63.589868,0,0,23.51046533,60.0198683,63.60445982,FALSE,179.7887932,179.7887932,0.4,0,-7.221349924,1.636419556,-1.174797268,0.343773429
0.692371,25.279917,19.156082,2,-0.433655,0.101501,0.015503,-0.895203,3.58,2.95,65.42,-17.209128,4.895169,63.096536,26.006231,62.110463,63.101972,0,0,24.09160019,60.64444683,63.13550399,FALSE,183.167804,183.167804,0.4,0,-7.376692742,1.681480411,-1.238262258,0.358197999
0.704844,26.026285,19.156082,2,-0.420593,0.097351,0.013245,-0.901917,2.92,2.62,64.11,-15.784882,4.249055,62.114955,26.792251,62.893487,62.125832,0,0,24.90694671,61.49999426,62.19325166,FALSE,187.8368401,187.8368401,0.4,0,-7.582459885,1.738508364,-1.331555013,0.379526759
0.713481,26.212503,19.156082,2,-0.407776,0.092957,0.011292,-0.908264,2.78,1.96,63.46,-14.555257,4.26674,61.714496,27.150017,63.166285,61.719029,0,0,25.47593703,62.08216142,61.7512262,FALSE,191.0417403,191.0417403,0.4,0,-7.713483775,1.775283825,-1.397610546,0.394701071
0.722526,26.306894,19.160724,2,-0.395325,0.088379,0.009705,-0.914246,2.11,2.07,62.77,-13.535673,3.378417,61.271442,27.451805,63.363405,61.276375,0,0,26.05226157,62.65604873,61.3082511,FALSE,194.2270049,194.2270049,0.4,0,-7.840525006,1.809859048,-1.467953551,0.410914879
0.735143,26.493112,19.160724,2,-0.383057,0.083679,0.008362,-0.919861,1.3,1.88,63.1,-12.340639,2.664628,61.866252,27.945996,63.748745,61.859751,0,0,26.83124136,63.40888398,61.8234421,FALSE,198.4438802,198.4438802,0.4,0,-8.00376572,1.847981597,-1.567907259,0.433990367
0.743828,27.1457,19.156082,2,-0.371094,0.079041,0.007385,-0.925171,0.36,1.88,61.94,-10.943381,1.67294,60.97266,28.24262,63.916206,60.982436,0,0,27.3732343,63.93098951,61.0379321,FALSE,201.3801595,201.3801595,0.4,0,-8.104876577,1.866817486,-1.637859038,0.450121882
0.752587,27.333994,19.165366,2,-0.359497,0.074402,0.006775,-0.930115,0.45,1.61,60.83,-10.11916,1.595337,59.984444,28.511538,64.053957,59.995441,0,0,27.90773819,64.42904933,60.06526773,FALSE,204.2061623,204.2061623,0.4,0,-8.197119976,1.881130905,-1.709253632,0.466536022
0.765039,27.985605,19.160724,2,-0.348206,0.070068,0.006348,-0.934753,-0.89,1.49,59.79,-8.399647,0.499404,59.220356,29.143646,64.57546,59.228897,0,0,28.68069219,65.13198801,59.28517772,FALSE,208.2253725,208.2253725,0.4,0,-8.312418068,1.894172763,-1.812042016,0.490041063
0.77401,29.198099,19.156082,2,-0.337036,0.065979,0.006104,-0.939148,-0.94,1.32,58.91,-7.659312,0.328846,58.431499,29.742945,65.124083,58.440286,0,0,29.26414915,65.65903714,58.49699333,FALSE,211.2519065,211.2519065,0.4,0,-8.384450529,1.897887878,-1.88693582,0.507050351
0.785954,29.200174,19.165366,2,-0.326111,0.062317,0.006042,-0.943237,-1.72,1.4,57.19,-6.468144,-0.488916,56.864204,30.348895,65.57074,56.881572,0,0,30.0126141,66.30394839,56.98947178,FALSE,215.0001173,215.0001173,0.4,0,-8.468819696,1.89693194,-1.98758355,0.529713015
0.794897,30.598612,19.160724,2,-0.315369,0.059082,0.006042,-0.947144,-1.8,1.54,56.7,-6.051137,-0.846423,56.419593,31.018525,66.188725,56.424684,0,0,30.60741498,66.81263939,56.46331417,FALSE,217.9688786,217.9688786,0.4,0,-8.524799661,1.890960972,-2.063570519,0.546650578
0.803737,30.877268,19.156082,2,-0.304871,0.056335,0.006165,-0.950684,-2.01,1.67,55.73,-5.522426,-1.264712,55.502832,31.560176,66.618439,55.51299,0,0,31.18515436,67.29139265,55.5765203,FALSE,220.7870248,220.7870248,0.4,0,-8.575954809,1.881629755,-2.139155853,0.563325429
0.815724,31.532206,19.160724,2,-0.294678,0.054199,0.006348,-0.954041,-2.01,2.05,54.41,-5.332543,-1.746389,54.195987,32.353577,67.256531,54.2105,0,0,31.97396654,67.92765164,54.30190167,FALSE,224.5623439,224.5623439,0.4,0,-8.641014066,1.863582721,-2.242345756,0.58577236
0.82431,31.999277,19.165366,2,-0.28479,0.052673,0.006592,-0.957092,-2.3,1.47,53.65,-4.497192,-1.554054,53.50825,32.818348,67.557974,53.515989,0,0,32.53292915,68.35883987,53.56913904,FALSE,227.1509626,227.1509626,0.4,0,-8.683213118,1.849413919,-2.316718664,0.601712254
0.83313,32.746653,19.165366,2,-0.275208,0.051697,0.006836,-0.959961,-1.52,2.14,52.52,-5.258056,-1.81463,52.290533,33.393125,67.988989,52.304037,0,0,33.11961043,68.8064039,52.3886278,FALSE,229.8491607,229.8491607,0.4,0,-8.726233762,1.834558023,-2.393494324,0.61795857
0.8457,33.493082,19.165366,2,-0.265991,0.051331,0.007019,-0.962585,-1.39,2.19,51.31,-5.195922,-1.884936,51.077333,34.284095,68.671851,51.090851,0,0,33.96524823,69.43274967,51.17793568,FALSE,233.6577559,233.6577559,0.4,0,-8.791937014,1.811306251,-2.503596028,0.640872827
0.854542,34.332468,19.160724,2,-0.257141,0.051575,0.00708,-0.964966,-1.08,2.29,51.06,-5.47157,-1.86702,50.794782,34.908946,69.142701,50.798045,0,0,34.56945544,69.86952015,50.82417759,FALSE,236.3335095,236.3335095,0.4,0,-8.839097996,1.794718853,-2.581542834,0.656815064
0.863405,35.454325,19.170007,2,-0.248535,0.052429,0.00708,-0.967163,-0.87,2.16,49.87,-5.512203,-1.695035,49.590129,35.699725,69.815093,49.60344,0,0,35.20309858,70.33549059,49.68480535,FALSE,239.1819514,239.1819514,0.4,0,-8.887772586,1.778933606,-2.660099461,0.672651705
0.87589,36.014536,19.170007,2,-0.240112,0.053711,0.006958,-0.969238,-0.45,2.8,48.46,-6.113102,-2.090394,48.111068,36.676952,70.545689,48.127514,0,0,36.08175591,70.94988807,48.23180531,FALSE,242.988226,242.988226,0.4,0,-8.960343552,1.755303066,-2.771516326,0.694714178
0.884468,36.854105,19.165366,2,-0.231812,0.05542,0.006653,-0.97113,0.04,2.47,48.1,-6.47156,-1.571666,47.700714,37.341229,71.034817,47.705417,0,0,36.69979025,71.37340712,47.74145939,FALSE,245.6290759,245.6290759,0.4,0,-9.014319168,1.73959649,-2.848609654,0.709703802
0.893306,37.041025,19.165366,2,-0.223511,0.057495,0.006165,-0.972961,0.63,2.76,46.11,-7.047196,-1.577347,45.628851,37.873962,71.310511,45.651735,0,0,37.31870117,71.77571808,45.79093056,FALSE,248.1730052,248.1730052,0.4,0,-9.074058551,1.725681002,-2.928542195,0.725016863
0.905969,37.602884,19.174649,2,-0.215271,0.059814,0.005493,-0.974731,1.64,2.31,45.06,-7.805172,-0.728794,44.463271,38.692846,71.762196,44.476368,0,0,38.20138936,72.31447047,44.56512919,FALSE,251.638787,251.638787,0.4,0,-9.168096318,1.71107967,-3.044042399,0.746776713
0.914805,39.001413,19.160724,2,-0.207092,0.062317,0.004639,-0.976318,1.97,2.07,43.89,-8.046503,-0.359264,43.23912,39.428628,72.283966,43.252754,0,0,38.8496512,72.71738025,43.34085158,FALSE,254.2226494,254.2226494,0.4,0,-9.238129019,1.70627263,-3.125361102,0.761874576
0.923662,39.561289,19.160724,2,-0.198853,0.064941,0.003479,-0.977844,2.14,2.26,42.51,-8.288185,-0.439097,41.807832,40.113318,72.711239,41.823754,0,0,39.49852221,73.1043505,41.92544544,FALSE,256.7335513,256.7335513,0.4,0,-9.310467184,1.702737088,-3.20750356,0.776971375
0.936127,40.123789,19.170007,2,-0.190613,0.067566,0.002136,-0.979309,2.71,1.75,41.6,-8.67994,0.287357,40.810978,41.026221,73.224327,40.822139,0,0,40.39922826,73.60746224,40.89648007,FALSE,260.0594444,260.0594444,0.4,0,-9.416221024,1.701791369,-3.324217645,0.798190099
0.9447,41.337717,19.165366,2,-0.182373,0.070129,0.000671,-0.980713,2.76,1.92,40.61,-8.831747,0.180656,39.7799,41.756345,73.706297,39.791385,0,0,41.04630689,73.97671184,39.86556416,FALSE,262.4894727,262.4894727,0.4,0,-9.49128487,1.703797507,-3.405264669,0.812788156
0.953579,42.644785,19.165366,2,-0.174072,0.07251,-0.000916,-0.982056,3.3,1.73,39.04,-9.204504,0.558415,38.117826,42.698964,74.423095,38.136268,0,0,41.74930347,74.38887543,38.25191268,FALSE,265.1855914,265.1855914,0.4,0,-9.571356806,1.707078612,-3.489893266,0.82793074
0.966194,42.832315,19.165366,2,-0.16571,0.074768,-0.002625,-0.983337,3,2.02,37.25,-8.90587,0.182758,36.349641,43.683842,74.936696,36.369329,0,0,42.69751612,74.8786963,36.49558351,FALSE,268.5064246,268.5064246,0.4,0,-9.68558799,1.711753561,-3.611356446,0.849495024
0.975031,44.325083,19.156082,2,-0.157288,0.076782,-0.004333,-0.984558,4.57,1.41,35.65,-10.06915,1.237452,34.509104,44.555234,75.532295,34.529603,0,0,43.40661691,75.26133735,34.66150695,FALSE,271.0719102,271.0719102,0.4,0,-9.769429116,1.718028759,-3.697318439,0.864649517
0.983914,44.887857,19.165366,2,-0.149109,0.078491,-0.006042,-0.985657,4.09,1.77,33.85,-9.555919,0.7029,32.769871,45.334879,75.966414,32.789262,0,0,44.11511907,75.61948137,32.91499754,FALSE,273.5202235,273.5202235,0.4,0,-9.85659386,1.726646832,-3.78448742,0.879949044
0.996373,45.448557,19.165366,2,-0.141052,0.079956,-0.007874,-0.986755,5.32,1.26,30.31,-10.108427,1.419064,29.058577,46.320383,76.375793,29.099688,0,0,45.07841562,76.05098763,29.35444204,FALSE,276.5825707,276.5825707,0.4,0,-9.979092903,1.739865607,-3.908053831,0.901543683
1.005204,46.945841,19.174649,2,-0.133057,0.080994,-0.009705,-0.987732,5.02,0.43,23.55,-8.596997,1.856002,22.419401,47.198431,76.856997,22.493016,0,0,45.80822292,76.38190024,22.95145817,FALSE,278.9241638,278.9241638,0.4,0,-10.0616867,1.754326661,-3.996543893,0.916972289
1.013987,47.504587,19.165366,2,-0.125183,0.081604,-0.011597,-0.988708,4.48,0.8,19.18,-7.518845,1.157461,18.185471,47.973003,77.148321,18.232939,0,0,46.52878469,76.64557273,18.5511181,FALSE,280.930264,280.930264,0.4,0,-10.13245942,1.767560284,-4.085226486,0.932438656
1.026588,48.344583,19.160724,2,-0.117432,0.081726,-0.013428,-0.989624,3.62,-0.44,12.86,-5.408235,1.849767,12.083353,49.066339,77.454584,12.15112,0,0,47.53676177,76.9280581,12.57956071,FALSE,283.3167218,283.3167218,0.4,0,-10.21390649,1.786507324,-4.213418764,0.954831059
1.035492,48.813486,19.165366,2,-0.10968,0.081299,-0.01532,-0.99054,3.64,-0.45,9.18,-4.853392,1.663176,8.45022,49.674354,77.414808,8.491003,0,0,48.25052497,77.07518499,8.767023507,FALSE,284.7489323,284.7489323,0.4,0,-10.25959125,1.802146946,-4.304566776,0.970807747
1.047375,49.374918,19.165366,2,-0.102051,0.080383,-0.01709,-0.991394,3.19,-0.73,5.21,-3.745019,1.61315,4.607309,50.497501,77.340453,4.650107,0,0,49.17701202,77.1891364,4.926442786,FALSE,286.2320943,286.2320943,0.4,0,-10.31067871,1.821613237,-4.426785035,0.992338319
1.05625,50.402231,19.160724,2,-0.09436,0.078979,-0.018921,-0.992188,2.98,-0.36,3.08,-3.292603,1.063923,2.553538,51.1531,77.319575,2.576642,0,0,49.88817248,77.26607634,2.735587537,FALSE,287.3192339,287.3192339,0.4,0,-10.34190816,1.833492748,-4.518430889,1.008557851
1.064858,51.336588,19.160724,2,-0.08667,0.077271,-0.020691,-0.993042,2.92,-0.4,1.49,-2.994701,0.968163,1.001259,51.877952,77.407525,1.018619,0,0,50.59084968,77.33874277,1.134316894,FALSE,288.37709,288.37709,0.4,0,-10.36896872,1.842238846,-4.607570503,1.0243782
1.076989,51.712534,19.170007,2,-0.078857,0.075134,-0.022461,-0.993774,1.77,-1.02,-0.96,-1.424577,1.223406,-1.252231,52.763401,77.324113,-1.227206,0,0,51.53794309,77.36223257,-1.069134764,FALSE,289.439014,289.439014,0.4,0,-10.39577385,1.855531808,-4.733519049,1.046807028
1.085565,52.83317,19.160724,2,-0.071167,0.072632,-0.024231,-0.994507,1.77,-1.33,-2.89,-1.132809,1.390044,-3.168274,53.448995,77.328078,-3.146884,0,0,52.23165834,77.39236721,-3.007227787,FALSE,290.2800556,290.2800556,0.4,0,-10.40673992,1.866738282,-4.822720228,1.062768122
1.09451,53.770334,19.170007,2,-0.063416,0.069824,-0.026062,-0.995178,0.72,-2.04,-3.89,0.085542,1.872664,-4.036981,54.244172,77.427745,-4.027173,0,0,52.96431438,77.41908501,-3.957978206,FALSE,291.1433447,291.1433447,0.4,0,-10.41142382,1.881330743,-4.915829466,1.079531361
1.107126,54.328928,19.160724,2,-0.055908,0.066833,-0.028015,-0.995789,0.34,-2.05,-5.6,0.628957,1.716139,-5.686561,55.247959,77.390913,-5.668275,0,0,53.95941619,77.39276052,-5.55394392,FALSE,292.0097364,292.0097364,0.4,0,-10.40691676,1.903968913,-5.047151558,1.103409031
1.115984,55.825449,19.160724,2,-0.048462,0.06366,-0.029968,-0.996338,-0.44,-2,-6.5,1.440791,1.517889,-6.485642,56.120381,77.594931,-6.476635,0,0,54.70147829,77.41927354,-6.414162003,FALSE,292.8814304,292.8814304,0.4,0,-10.39774985,1.918292423,-5.139295427,1.120337827
1.124673,56.10737,19.165366,2,-0.041199,0.060486,-0.031982,-0.996826,0.04,-2.5,-7.09,1.01172,2.002328,-7.175491,56.790132,77.526986,-7.16779,0,0,55.40906451,77.41018922,-7.117081744,FALSE,293.5445988,293.5445988,0.4,0,-10.38709491,1.933586005,-5.229595185,1.137072312
1.137266,56.948587,19.160724,2,-0.03418,0.057373,-0.033936,-0.997192,-1.64,-2.72,-7.73,2.687957,2.048507,-7.64327,57.817085,77.496155,-7.638031,0,0,56.41059252,77.35688706,-7.602900767,FALSE,294.285531,294.285531,0.4,0,-10.3637999,1.959092088,-5.360253194,1.16158256
1.145777,58.353372,19.165366,2,-0.027527,0.054321,-0.035889,-0.997498,-1.25,-4.41,-11.06,2.676825,3.50322,-11.130862,58.649983,77.644576,-11.092372,0,0,57.1304294,77.37287888,-10.86019639,FALSE,295.0835479,295.0835479,0.4,0.069822987,-10.34097007,1.982717462,-5.448362342,1.178356931
1.154835,58.540171,19.165366,2,-0.021057,0.051331,-0.037903,-0.997742,-2.8,-3.95,-9.75,3.947249,3.069903,-9.669552,59.317451,77.510195,-9.685232,0,0,57.86484697,77.32101916,-9.760898371,FALSE,295.5644505,295.5644505,0.4,0,-10.31096964,2.012487136,-5.541894977,1.196451212
1.167479,59.570993,19.170007,2,-0.013794,0.048462,-0.040039,-0.997925,-3.33,-4.18,-10.05,4.405325,3.269667,-9.97325,60.378752,77.489354,-9.970076,0,0,58.87693296,77.24499066,-9.956958347,FALSE,296.2049469,296.2049469,0.4,0.009803,-10.25816466,2.052565898,-5.671933044,1.222150478
1.176336,60.601389,19.174649,2,-0.00708,0.045898,-0.042053,-0.998047,-3.46,-5.44,-10.32,4.482462,4.51193,-10.37407,61.136856,77.498984,-10.369618,0,0,59.61081095,77.22403735,-10.34206914,FALSE,296.836431,296.836431,0.4,0.035511456,-10.2188051,2.0870267,-5.762615305,1.240482663
1.184994,60.975077,19.174649,2,-0.001648,0.04364,-0.043945,-0.998108,-3.13,-4.37,-10.82,4.090578,3.404578,-10.8466,61.755198,77.335138,-10.841343,0,0,60.31243216,77.17904412,-10.80789233,FALSE,297.3182036,297.3182036,0.4,0.066679189,-10.18169241,2.121297263,-5.850929059,1.258700498
1.19746,61.347727,19.165366,2,0.003418,0.041992,-0.045715,-0.998047,-3.32,-4.8,-11.58,4.267904,3.761487,-11.652901,62.586529,77.021262,-11.643958,0,0,61.27727713,77.04835556,-11.58807183,FALSE,297.6446465,297.6446465,0.4,0.119214194,-10.12959399,2.165963346,-5.977529307,1.285422993
1.206097,62.937906,19.160724,2,0.007874,0.040955,-0.046997,-0.998047,-3.49,-4.71,-12.13,4.42288,3.627224,-12.197889,63.36514,77.075013,-12.191785,0,0,61.99023575,77.01240468,-12.15110375,FALSE,298.1820344,298.1820344,0.4,0.157110317,-10.09206284,2.197871495,-6.064856532,1.304268214
1.215157,63.499613,19.160724,2,0.01178,0.040527,-0.047913,-0.997986,-3.01,-4.04,-12.61,3.954569,2.909334,-12.660807,64.106327,77.017765,-12.655639,0,0,62.72647356,76.95439557,-12.6217025,FALSE,298.6350196,298.6350196,0.4,0.188976551,-10.054113,2.227482103,-6.156118708,1.324315066
1.227758,63.59382,19.165366,2,0.015259,0.040771,-0.048462,-0.997864,-2.14,-4.63,-12.91,3.078651,3.446947,-13.089035,64.9099,76.63963,-13.084259,0,0,63.69026932,76.78828047,-13.0531812,FALSE,298.7879817,298.7879817,0.4,0.218920657,-10.00980019,2.267529851,-6.282531393,1.352635889
1.23659,64.250315,19.170007,2,0.018311,0.041565,-0.048584,-0.997803,-1.69,-3.64,-13.14,2.678139,2.435219,-13.253847,65.372406,76.221685,-13.251978,0,0,64.36228207,76.66520804,-13.2384519,FALSE,298.8595377,298.8595377,0.4,0.232170393,-9.984378208,2.293505496,-6.370825685,1.372777421
1.245316,64.999491,19.170007,2,0.021118,0.042908,-0.04834,-0.997681,-2.08,-3.52,-13.28,3.100821,2.339757,-13.341104,65.916591,75.944131,-13.340122,0,0,65.02925575,76.54760013,-13.33322852,FALSE,298.9529391,298.9529391,0.4,0.239322245,-9.959164605,2.314338716,-6.457839362,1.392881445
1.257776,65.561319,19.170007,2,0.023621,0.0448,-0.047852,-0.997559,-1.39,-2.3,-13.73,2.542516,1.076526,-13.71536,66.746841,75.625906,-13.711225,0,0,65.96165326,76.35360295,-13.68604283,FALSE,298.9396964,298.9396964,0.4,0.264627462,-9.924006616,2.335622159,-6.581711519,1.421850701
1.266393,66.028391,19.165366,2,0.02594,0.047058,-0.046997,-0.997437,-0.19,-2.43,-13.82,1.404945,1.16462,-13.914123,67.165227,75.180224,-13.911887,0,0,66.59061677,76.19715654,-13.89662467,FALSE,298.806502,298.806502,0.4,0.280151296,-9.90699898,2.345278137,-6.667153407,1.44201836
1.286458,66.777201,19.165366,2,0.030273,0.05249,-0.044617,-0.997192,0.44,-1.49,-14.22,1.007245,0.23273,-14.26722,68.543764,74.728136,-14.263305,0,0,68.05044798,75.82668385,-14.23878793,FALSE,298.4630979,298.4630979,0.4,0.306581661,-9.882798684,2.359297051,-6.865694552,1.489217011
1.295495,67.993723,19.160724,2,0.032532,0.05542,-0.043335,-0.997009,1.73,-1.32,-14.2,-0.185864,0.015979,-14.364564,69.036531,74.289301,-14.363448,0,0,68.69857623,75.64788702,-14.35491445,FALSE,298.2417639,298.2417639,0.4,0.316109482,-9.879087274,2.360420843,-6.954988634,1.510543056
1.305147,68.273416,19.156082,2,0.034851,0.058472,-0.041931,-0.996826,1.35,-1.59,-14.24,0.261294,0.347927,-14.385379,69.502948,73.766513,-14.385138,0,0,69.37127518,75.43175155,-14.38304177,FALSE,297.8641443,297.8641443,0.4,0.319891129,-9.878723249,2.362177053,-7.050339827,1.533334313
1.317886,69.024973,19.165366,2,0.037476,0.061646,-0.040588,-0.996582,2.74,-1.43,-14.21,-1.022083,0.119052,-14.5058,70.285091,73.356052,-14.50447,0,0,70.26640829,75.15983058,-14.496382,FALSE,297.4389943,297.4389943,0.4,0.330195777,-9.883569094,2.365151476,-7.176215748,1.563445032
1.326719,69.679209,19.160724,2,0.040283,0.064819,-0.039429,-0.996277,2.65,-0.31,-14.31,-0.748466,-0.967772,-14.505077,70.734642,72.929995,-14.505071,0,0,70.86812579,74.94770367,-14.50440993,FALSE,297.011636,297.011636,0.4,0.332636393,-9.891388724,2.361403104,-7.263551849,1.584319861
1.335799,71.178446,19.160724,2,0.043152,0.067932,-0.03833,-0.996033,3.76,-0.89,-14.31,-1.799527,-0.467435,-14.705436,71.54023,72.997568,-14.703228,0,0,71.52990922,74.79118942,-14.69001326,FALSE,296.9146357,296.9146357,0.4,0.347236633,-9.902956612,2.354887264,-7.353418177,1.605731819
1.348427,71.272745,19.165366,2,0.046265,0.070679,-0.037415,-0.995728,3.49,-0.25,-14.23,-1.409781,-1.058978,-14.547399,72.374021,72.69865,-14.549116,0,0,72.41393235,74.52492146,-14.5583404,FALSE,296.5087795,296.5087795,0.4,0.340286097,-9.923220183,2.345249492,-7.478600657,1.635408483
1.356993,72.489298,19.160724,2,0.049438,0.073181,-0.036621,-0.995422,4.51,-0.54,-14.22,-2.366725,-0.86599,-14.713568,73.033649,72.625896,-14.711756,0,0,73.02414669,74.36256903,-14.70165893,FALSE,296.3331313,296.3331313,0.4,0.352089287,-9.939394958,2.337004854,-7.563672238,1.655462578
1.365779,73.052011,19.160724,2,0.052917,0.075317,-0.036072,-0.995117,4.18,-0.71,-14.29,-1.98374,-0.67071,-14.757939,73.677103,72.504126,-14.75743,0,0,73.64635923,74.19198987,-14.75362119,FALSE,296.1301715,296.1301715,0.4,0.357467498,-9.958506551,2.330254131,-7.651083719,1.675965847
1.378361,73.519419,19.156082,2,0.056641,0.077087,-0.035767,-0.994751,4.14,-0.83,-14.2,-1.917525,-0.553306,-14.679372,74.537158,72.254576,-14.680232,0,0,74.52655986,73.93561632,-14.68506842,FALSE,295.7711679,295.7711679,0.4,0.354959443,-9.983049409,2.322553847,-7.776536048,1.705236662
1.387245,74.361032,19.151441,2,0.060608,0.078308,-0.035645,-0.994446,4.32,-0.53,-14.24,-2.016842,-0.894452,-14.725934,75.121405,72.044689,-14.725431,0,0,75.14255622,73.75061452,-14.7227988,FALSE,295.4936932,295.4936932,0.4,0.359503485,-10.00052587,2.316122906,-7.865303089,1.725841664
1.396127,74.928507,19.170007,2,0.064758,0.079102,-0.035828,-0.994141,4.09,-0.43,-14.34,-1.735968,-0.999072,-14.783051,75.69845,71.831355,-14.782416,0,0,75.75463518,73.56261505,-14.77842845,FALSE,295.1984765,295.1984765,0.4,0.365434996,-10.0171921,2.307713765,-7.954201775,1.746376122
1.408726,75.58259,19.165366,2,0.069031,0.079346,-0.036133,-0.993774,3.24,-0.06,-14.49,-0.818509,-1.285724,-14.769476,76.564798,71.597814,-14.769619,0,0,76.62638383,73.30341311,-14.77016285,FALSE,294.8203935,294.8203935,0.4,0.367411678,-10.03328402,2.293320693,-8.080509749,1.775360339
1.417327,76.517679,19.156082,2,0.073547,0.079163,-0.036621,-0.993469,2.83,-0.6,-14.32,-0.518557,-0.713301,-14.582647,77.164809,71.451276,-14.584707,0,0,77.22022603,73.12780237,-14.59703324,FALSE,294.5681946,294.5681946,0.4,0.356292608,-10.03903408,2.284723886,-8.166830753,1.79504822
1.426291,77.175486,19.160724,2,0.078247,0.07843,-0.037354,-0.993164,2.83,-1.1,-14.4,-0.597776,-0.264559,-14.702113,77.808152,71.323985,-14.700819,0,0,77.84108748,72.9510555,-14.69405127,FALSE,294.3381405,294.3381405,0.4,0.365277119,-10.04403748,2.280341118,-8.25684308,1.815508841
1.438885,77.458017,19.165366,2,0.08313,0.077393,-0.038208,-0.992798,2.15,-2.23,-14.39,-0.146734,0.918556,-14.690212,78.591998,70.996032,-14.690329,0,0,78.69495808,72.67991548,-14.69050657,FALSE,293.8878379,293.8878379,0.4,0.367740522,-10.04872566,2.284459337,-8.383367209,1.844253389
1.447773,78.583017,19.165366,2,0.088379,0.07605,-0.039368,-0.992432,2.36,-1.93,-14.33,-0.360337,0.538887,-14.636394,79.219523,70.861927,-14.636989,0,0,79.30340394,72.4996209,-14.64054553,FALSE,293.6298739,293.6298739,0.4,0.365788563,-10.05097908,2.290936213,-8.472690297,1.864586447
1.459639,78.585611,19.174649,2,0.09375,0.074463,-0.040649,-0.992004,1.57,-2.42,-14.31,0.262507,1.113932,-14.552955,79.853936,70.419955,-14.553881,0,0,80.08540059,72.2216389,-14.55967498,FALSE,293.0772896,293.0772896,0.4,0.362438752,-10.05155951,2.300742388,-8.591958659,1.891828876
1.468533,79.517832,19.156082,2,0.099121,0.072632,-0.042053,-0.991516,1,-2.37,-14.26,0.751652,1.128393,-14.42657,80.370759,70.140772,-14.427973,0,0,80.66815297,72.01280857,-14.43678184,FALSE,292.6584794,292.6584794,0.4,0.355111664,-10.04704954,2.310714008,-8.681337173,1.912336023
1.477211,79.987101,19.160724,2,0.104248,0.070679,-0.043335,-0.991089,0.94,-2.41,-14.32,0.742175,1.129529,-14.488872,80.855074,69.851702,-14.488201,0,0,81.22910436,71.80241364,-14.48487565,FALSE,292.2112629,292.2112629,0.4,0.360908732,-10.04056783,2.320511131,-8.768497345,1.932430909
1.489444,80.737955,19.160724,2,0.109436,0.068604,-0.044556,-0.990601,-0.23,-1.98,-14.28,1.885276,0.929688,-14.264381,81.670646,69.629462,-14.266847,0,0,82.03955054,71.53542138,-14.2812974,FALSE,291.7436527,291.7436527,0.4,0.347773664,-10.02449703,2.333106332,-8.891225314,1.96089476
1.498233,80.832834,19.165366,2,0.114624,0.066528,-0.045654,-0.990112,0.19,-1.95,-14.43,1.437967,0.761762,-14.471186,82.010897,69.131474,-14.468934,0,0,82.57846931,71.28997773,-14.45661774,FALSE,291.1089777,291.1089777,0.4,0.363902804,-10.00989303,2.340539409,-8.979266441,1.981433096
1.507017,82.049997,19.160724,3,0.119873,0.064453,-0.04657,-0.989624,-0.56,-2.19,-14.39,2.029235,1.149987,-14.378539,82.630202,69.02161,-14.379535,0,0,83.14819643,71.08821266,-14.38452922,FALSE,290.7149137,290.7149137,0.4,0.360293668,-9.994665083,2.348935811,-9.067126461,2.002029272
1.519575,82.332651,19.165366,3,0.125183,0.062561,-0.047302,-0.989014,-0.63,-2.22,-14.37,2.017151,1.18063,-14.365196,83.399661,68.720502,-14.365354,0.024,0.024,83.95656455,70.79567511,-14.36667927,FALSE,288.7929484,290.1274343,0.4144,0.361859868,-9.969257825,2.363569755,-9.192479932,2.031619094
1.528447,83.458689,19.165366,3,0.130615,0.060791,-0.048096,-0.988403,-1.02,-2.47,-14.38,2.263111,1.504844,-14.371491,84.0279,68.619322,-14.371423,0.042,0.042,84.52943639,70.59493058,-14.37112185,FALSE,287.4426634,289.743521,0.4252,0.364275579,-9.950270583,2.375482517,-9.280842961,2.05264153
1.537243,83.458689,19.165366,3,0.136108,0.059204,-0.048767,-0.987732,-0.84,-1.57,-14.28,2.249652,0.589583,-14.201433,84.447268,68.253079,-14.203306,0.06,0.06,85.06799681,70.35925172,-14.21445156,FALSE,285.9262234,289.1599181,0.436,0.354123565,-9.930423451,2.384693807,-9.368278253,2.073576785
1.54947,85.052286,19.160724,3,0.141602,0.0578,-0.049316,-0.987,-1.48,-2.55,-14.21,2.532288,1.70668,-14.187723,85.476306,68.32672,-14.187895,0.084,0.084,85.88465547,70.12833208,-14.18977363,FALSE,284.4322255,288.8782655,0.4504,0.354462306,-9.901189061,2.398732011,-9.489518816,2.102820259
1.558286,85.709604,19.165366,3,0.147034,0.056763,-0.049744,-0.986267,-1.35,-2.18,-14.17,2.456922,1.320433,-14.127449,86.153642,68.305691,-14.128115,0.1,0.1,86.46393491,69.95185139,-14.13223056,FALSE,283.3942932,288.6189621,0.46,0.351572516,-9.879196623,2.412075525,-9.576710756,2.124026299
1.567046,85.709604,19.165366,3,0.152405,0.055969,-0.050171,-0.985474,-1.25,-2.41,-14.21,2.25865,1.505857,-14.210087,86.608245,67.993849,-14.209184,0.12,0.12,87.01018236,69.73993013,-14.20411386,FALSE,281.9877305,288.1591528,0.472,0.359595049,-9.858542418,2.424454676,-9.663162053,2.145210301
1.579681,86.647654,19.165366,3,0.157776,0.055542,-0.050476,-0.984619,-1.03,-2.31,-14.19,2.045659,1.347242,-14.20399,87.478955,67.830415,-14.204047,0.144,0.144,87.82982812,69.47942214,-14.20399952,FALSE,280.4780705,287.7434885,0.4864,0.362287228,-9.831349946,2.442479129,-9.787552948,2.175957155
1.588529,87.493448,19.170007,3,0.163025,0.05542,-0.05072,-0.983765,-0.23,-2.06,-14.25,1.356672,0.850463,-14.310671,88.083253,67.710289,-14.309496,0.162,0.162,88.39799545,69.29207671,-14.30248716,FALSE,279.3637627,287.4242439,0.4972,0.372413232,-9.816298033,2.452201775,-9.874474143,2.197611224
1.597365,87.585794,19.165366,3,0.168335,0.055725,-0.050903,-0.982849,-0.01,-1.81,-14.11,1.208122,0.554362,-14.16339,88.520444,67.373386,-14.165,0.18,0.18,88.94098739,69.07409311,-14.17406156,FALSE,278.1149494,286.9357267,0.508,0.364054077,-9.804966773,2.458408292,-9.961160891,2.219306299
1.609718,88.616404,19.160724,3,0.173706,0.056274,-0.050964,-0.981873,0.61,-0.88,-14.03,0.934374,-0.51908,-14.030143,89.382669,67.239459,-14.031629,0.204,0.204,89.73606539,68.82253262,-14.04118447,FALSE,276.7283719,286.5417973,0.5224,0.355554413,-9.791733647,2.458626212,-10.08219991,2.249676362
1.61832,87.865488,19.160724,3,0.179382,0.057068,-0.050964,-0.980774,-0.16,-1.79,-13.94,1.344559,0.614392,-13.977395,89.469348,66.44062,-13.977993,0.222,0.222,90.2085552,68.5427237,-13.98228896,FALSE,275.2029968,285.693532,0.5332,0.353473675,-9.781931956,2.459036148,-10.16638625,2.270827228
1.630248,88.711374,19.165366,3,0.185181,0.058044,-0.050964,-0.979675,-1.12,-1.16,-14.02,2.480781,0.388866,-13.887233,90.015416,65.955224,-13.888233,0.244,0.244,90.91279379,68.22526463,-13.89452574,FALSE,273.6075118,284.9015849,0.5464,0.349266227,-9.759117628,2.465019579,-10.28292907,2.300194297
1.638891,88.620035,19.170007,3,0.19104,0.059082,-0.050903,-0.978455,1.33,-1.17,-14.08,0.247877,-0.511506,-14.179599,90.132999,65.20593,-14.176389,0.262,0.262,91.36257761,67.91857458,-14.15772817,FALSE,272.0089424,283.9082773,0.5572,0.375137666,-9.747325733,2.46448959,-10.36722616,2.321497171
1.647774,89.275003,19.165366,3,0.197021,0.060242,-0.050842,-0.977234,0.38,-0.99,-14.01,1.20731,-0.300199,-13.994889,90.434855,64.718159,-13.996889,0.282,0.282,91.8356556,67.61990329,-14.00738206,FALSE,270.4140972,282.9782363,0.5692,0.365371632,-9.74086252,2.460884403,-10.45378295,2.343373219
1.660226,88.99473,19.170007,3,0.202942,0.061462,-0.050842,-0.975952,2.1,-1.2,-14.01,-0.409259,-0.790799,-14.189343,90.773922,63.951137,-14.187222,0.304,0.304,92.49801933,67.20582962,-14.17538299,FALSE,268.4879435,281.6990505,0.5824,0.384692636,-9.735893854,2.454091849,-10.57504523,2.373973861
1.669078,90.025492,19.165366,3,0.208862,0.062866,-0.050903,-0.974609,1.29,-2.44,-14.17,-0.107389,0.647325,-14.421386,91.097022,63.48785,-14.418806,0.322,0.322,92.94414941,66.88193483,-14.40251265,FALSE,266.9094558,280.6295261,0.5932,0.408637405,-9.738180538,2.453456833,-10.66123749,2.395694672
1.677671,90.591776,19.174649,3,0.214783,0.064453,-0.051147,-0.973206,2.56,-1.77,-14.28,-0.925776,-0.515821,-14.576769,91.479031,63.147318,-14.575028,0.342,0.342,93.37744769,66.5702096,-14.56340006,FALSE,265.3193754,279.6066893,0.6052,0.426923373,-9.742619532,2.45402184,-10.74493675,2.416779654
1.690226,91.058939,19.170007,3,0.220703,0.06604,-0.051514,-0.971741,1.47,-2.16,-14.14,-0.089426,0.294148,-14.376078,92.134899,62.795481,-14.37827,0.364,0.364,94.05932652,66.18270074,-14.39044942,FALSE,263.6322424,278.4820023,0.6184,0.416221523,-9.748992462,2.452630288,-10.86729534,2.447581163
1.698783,91.52717,19.165366,3,0.226746,0.067444,-0.052002,-0.970215,2.24,-1.27,-14.54,-0.293347,-0.891244,-14.736405,92.474927,62.396701,-14.732458,0.382,0.382,94.47565158,65.85957446,-14.70986327,FALSE,262.1149299,277.3949845,0.6292,0.449626122,-9.750630156,2.450075613,-10.95072447,2.46855739
1.707801,92.185404,19.170007,3,0.232605,0.068665,-0.052429,-0.96875,2.03,-2.62,-14.64,-0.648524,0.37334,-14.991853,92.94361,62.13919,-14.988995,0.402,0.402,94.93022556,65.54168926,-14.97021874,FALSE,260.6120481,276.3733657,0.6412,0.47812149,-9.754877053,2.447740384,-11.03867481,2.490641642
1.720432,92.653696,19.165366,3,0.238281,0.069702,-0.052979,-0.967224,2.67,-2.59,-14.65,-1.170179,0.015979,-15.069478,93.633501,61.829604,-15.068591,0.426,0.426,95.60658287,65.15088138,-15.06186287,FALSE,258.939924,275.2387078,0.6556,0.492468209,-9.766363072,2.450199128,-11.1619612,2.521574579
1.729278,92.841623,19.165366,3,0.243835,0.070679,-0.053589,-0.965759,2.53,-2.96,-14.83,-1.16349,0.356515,-15.284336,93.923205,61.336314,-15.281959,0.442,0.442,96.02105144,64.80175551,-15.26726787,FALSE,257.4696382,274.0389293,0.6652,0.517257912,-9.776684889,2.451846669,-11.2484001,2.543256328
1.737962,93.687906,19.170007,3,0.249268,0.071472,-0.054321,-0.964233,3.87,-2.42,-15.1,-2.003404,-0.829475,-15.62496,94.37931,61.099733,-15.621181,0.462,0.462,96.44394898,64.48316568,-15.59751784,FALSE,256.0171147,272.9917879,0.6772,0.553993994,-9.790435543,2.449793076,-11.33336054,2.564539247
1.750423,94.626169,19.170007,3,0.254639,0.072144,-0.055115,-0.962769,3.3,-2.45,-15.04,-1.508097,-0.570401,-15.507887,95.219308,61.00798,-15.509135,0.484,0.484,97.11945326,64.11879524,-15.51476353,FALSE,254.6066557,271.9895949,0.6904,0.552296579,-9.81231395,2.441071149,-11.45549547,2.595011777
1.759104,94.719126,19.165366,3,0.259888,0.07251,-0.055908,-0.961304,3.06,-1.82,-15.13,-0.960366,-1.046981,-15.478208,95.586332,60.64856,-15.478549,0.5,0.5,97.53293155,63.79351198,-15.48101257,FALSE,253.2960326,270.908623,0.7,0.554642315,-9.823028314,2.434050902,-11.54072267,2.616172244
1.768117,95.002115,19.170007,3,0.264893,0.072632,-0.056641,-0.959839,2.58,-2.78,-15.11,-1.021,-0.022987,-15.545184,95.943785,60.260034,-15.544449,0.482,0.482,97.95794817,63.4546675,-15.54026079,FALSE,252.9947238,269.780217,0.6892,0.566438358,-9.83195734,2.429229092,-11.62929786,2.638088616
1.780791,95.65748,19.165366,3,0.269836,0.072327,-0.057373,-0.958435,2.46,-2.29,-15.37,-0.634368,-0.442102,-15.714129,96.613607,59.94255,-15.712259,0.458,0.458,98.61066653,63.05583007,-15.70078986,FALSE,252.864344,268.6088961,0.6748,0.589696364,-9.842447407,2.426281823,-11.75397457,2.668857988
1.789625,95.937906,19.160724,3,0.274597,0.071838,-0.058167,-0.957092,2.6,-3.08,-15.28,-1.184829,0.107691,-15.757815,96.923468,59.496332,-15.757313,0.44,0.44,99.0112662,62.70848176,-15.75344005,FALSE,252.4825173,267.424887,0.664,0.601576314,-9.8504828,2.424804729,-11.84095824,2.690285237
1.801288,96.504526,19.170007,3,0.279236,0.071045,-0.059082,-0.95575,1.25,-2.56,-15.36,0.205435,0.339797,-15.616905,97.480522,59.133934,-15.618452,0.418,0.418,99.58473027,62.31417612,-15.62738003,FALSE,252.2013675,266.2040477,0.6508,0.596292208,-9.856194136,2.427414255,-11.95587773,2.718580953
1.809851,97.350595,19.174649,3,0.28363,0.070007,-0.059937,-0.954468,2.24,-2.47,-15.52,-0.572263,-0.336395,-15.860252,97.944214,58.939393,-15.857588,0.4,0.4,99.98422851,62.00143239,-15.84238606,FALSE,251.9288355,265.1838632,0.64,0.624584346,-9.85776471,2.427428821,-12.04028304,2.739366963
1.818682,98.09907,19.165366,3,0.287781,0.068726,-0.060852,-0.953308,1.84,-1.12,-15.46,0.444088,-1.280851,-15.550366,98.514064,58.867874,-15.553752,0.382,0.382,100.4141629,61.70549661,-15.57276983,FALSE,251.7426796,264.2732779,0.6292,0.602405577,-9.858330667,2.420287871,-12.12733946,2.760772056
1.831042,98.663187,19.165366,3,0.291565,0.067139,-0.061523,-0.952209,0.71,-3.28,-15.56,0.170682,1.083513,-15.879958,99.288676,58.732852,-15.876364,0.390625,0.390625,101.0540768,61.34951128,-15.85639053,FALSE,250.7452697,263.3043982,0.634375,0.639409954,-9.854531388,2.419068323,-12.24916495,2.790679277
1.839851,98.663187,19.165366,3,0.295288,0.065491,-0.062256,-0.951111,1.32,-2.11,-15.67,0.281876,-0.276289,-15.86151,99.60287,58.312618,-15.861673,0.372625,0.372625,101.4525534,61.02060551,-15.86111726,FALSE,250.3840895,262.2201345,0.623575,0.646826727,-9.852538097,2.422623741,-12.33596473,2.81200451
1.848744,99.321909,19.170007,3,0.298767,0.063843,-0.06311,-0.950073,0.92,-3.36,-15.38,-0.182839,0.945794,-15.740128,100.030153,58.052931,-15.741468,0.352625,0.352625,101.8660739,60.70798889,-15.74941033,FALSE,250.1488833,261.2276601,0.611575,0.641441496,-9.852097728,2.425600695,-12.4235814,2.83356214
1.861291,99.980661,19.174649,3,0.302185,0.062073,-0.064087,-0.949097,0.64,-1.75,-15.24,0.877801,-0.238177,-15.326532,100.741327,57.840202,-15.331104,0.330625,0.330625,102.4984917,60.33876874,-15.35897532,FALSE,249.9558307,260.2037202,0.598375,0.606632004,-9.847737884,2.43003993,-12.54716832,2.864024002
1.869883,101.101847,19.156082,3,0.305237,0.060364,-0.065002,-0.94812,-0.01,-3,-15.09,0.621269,1.117397,-15.332095,101.354516,57.87152,-15.332084,0.348625,0.348625,102.9240644,60.08325036,-15.33415728,FALSE,248.8702935,259.4857149,0.609175,0.609066357,-9.84129788,2.433817059,-12.63175241,2.884919131
1.87869,101.856852,19.165366,3,0.308044,0.058594,-0.065918,-0.947266,0.69,-2.43,-15.01,0.322138,0.20695,-15.216253,102.025679,57.951404,-15.21753,0.368625,0.368625,103.3759404,59.8458658,-15.22529864,FALSE,247.8455125,258.8771736,0.621175,0.601810162,-9.837143587,2.439648821,-12.71840643,2.906379438
1.891255,102.140055,19.170007,3,0.310852,0.056885,-0.066711,-0.946411,-1.31,-2.33,-14.89,1.915926,1.286133,-14.951,102.789651,57.810561,-14.953937,0.392625,0.392625,104.0306081,59.52572708,-14.97204425,FALSE,246.6177606,258.1048397,0.635575,0.579852748,-9.82308295,2.449029115,-12.8419218,2.937092557
1.900144,103.362833,19.174649,3,0.31366,0.055237,-0.067444,-0.945496,0.19,-2.39,-14.68,0.603252,0.420067,-14.856304,103.488685,57.937502,-14.85738,0.408625,0.408625,104.5014555,59.31543023,-14.86518362,FALSE,245.8620637,257.6402468,0.645175,0.571882726,-9.811886463,2.456612321,-12.92918943,2.958895681
1.909003,103.735483,19.165366,3,0.316406,0.053711,-0.068115,-0.944641,-1.02,-3.29,-14.65,0.985314,1.83047,-14.905202,104.081051,57.911482,-14.904675,0.428625,0.428625,104.9642911,59.10076602,-14.9021318,FALSE,244.9924361,257.149822,0.657175,0.580254917,-9.80484991,2.466581074,-13.01608176,2.980702966
1.921476,104.391367,19.160724,3,0.319092,0.052368,-0.068787,-0.943787,-0.93,-2.92,-14.77,1.106236,1.440632,-14.974834,104.902625,57.853323,-14.974061,0.450625,0.450625,105.6369708,58.82971046,-14.9692563,FALSE,244.087125,256.6211629,0.670375,0.593333808,-9.791805959,2.486981302,-13.1382963,3.011595858
1.930087,105.051493,19.165366,3,0.321777,0.051147,-0.069336,-0.942871,-1.34,-2.46,-14.73,1.658163,1.308294,-14.844469,105.44848,57.792925,-14.845897,0.468625,0.468625,106.090395,58.63041813,-14.85404271,FALSE,243.349639,256.1929877,0.681175,0.584034074,-9.779903839,2.498816803,-13.2225623,3.033062211
1.939015,105.051493,19.165366,3,0.324524,0.05011,-0.069885,-0.941956,-1.3,-3.57,-14.58,0.899746,2.141629,-14.886734,105.835741,57.490647,-14.886284,0.488625,0.488625,106.5382005,58.39744722,-14.88422593,FALSE,242.4468002,255.6120308,0.693175,0.592226025,-9.768485333,2.514217259,-13.30982631,3.055440395
1.951571,105.89567,19.160724,3,0.327271,0.049255,-0.070251,-0.94104,-0.59,-2.89,-14.92,0.769867,1.118342,-15.148057,106.575789,57.32524,-15.145173,0.512625,0.512625,107.2037684,58.12090854,-15.12781587,FALSE,241.5244097,255.0590157,0.707575,0.626576237,-9.758003502,2.534683357,-13.43241361,3.087137393
1.960437,106.083841,19.160724,3,0.330017,0.048767,-0.070374,-0.940063,-1.08,-3.41,-15.12,0.835756,1.796847,-15.410404,106.923977,56.965512,-15.407481,0.494625,0.494625,107.6396482,57.88088906,-15.38872382,FALSE,241.495338,254.4395161,0.696775,0.662780754,-9.750885776,2.54760639,-13.51889651,3.109667184
1.972324,106.647348,19.160724,3,0.332764,0.048584,-0.070312,-0.939148,-0.41,-3.07,-15.06,0.498463,1.117039,-15.32648,107.510359,56.664234,-15.327373,0.470625,0.470625,108.2452333,57.5884877,-15.33125538,FALSE,241.5743206,253.7622861,0.682375,0.662631231,-9.742955845,2.564925071,-13.63475816,3.140053515
1.981247,107.307077,19.165366,3,0.335327,0.048523,-0.070068,-0.938232,-1.48,-2.63,-15.38,1.626276,1.432304,-15.522729,107.949435,56.433099,-15.520577,0.454625,0.454625,108.6883824,57.35742611,-15.50803913,FALSE,241.5263565,253.1939942,0.672775,0.689368655,-9.733476322,2.576298965,-13.72165226,3.162991086
1.989958,108.15455,19.170007,3,0.337708,0.048645,-0.069763,-0.937378,-0.1,-2.23,-15.29,0.79485,0.266045,-15.429327,108.506682,56.387416,-15.430333,0.46875,0.46875,109.1377207,57.15582817,-15.43536581,FALSE,240.9029363,252.7625129,0.68125,0.685385858,-9.722931108,2.583696124,-13.80639465,3.185465444
2.002161,108.903299,19.160724,3,0.339966,0.04895,-0.069214,-0.936646,-1.16,-2.27,-15.46,1.601391,0.980498,-15.555884,109.32191,56.36196,-15.5545,0.49075,0.49075,109.7889935,56.90675092,-15.54663784,FALSE,240.1410977,252.3276581,0.69445,0.70507492,-9.708310443,2.591301906,-13.92495437,3.217040695
2.010978,109.655741,19.160724,3,0.341919,0.049438,-0.068665,-0.935913,-1.11,-1.51,-15.58,2.062214,0.38491,-15.551454,109.926369,56.37481,-15.551488,0.50875,0.50875,110.2595318,56.728614,-15.55108451,FALSE,239.5630462,252.0228718,0.70525,0.710059934,-9.692159441,2.597321308,-14.01048134,3.23991474
2.019551,110.595987,19.160724,3,0.343689,0.05011,-0.067993,-0.935242,-0.32,-1.82,-15.36,1.242709,0.156442,-15.41996,110.625122,56.528514,-15.42141,0.52675,0.52675,110.7381194,56.58578372,-15.43001989,FALSE,239.1322741,251.8806893,0.71605,0.698600023,-9.677992888,2.599641813,-14.0935115,3.262191523
2.032151,110.031198,19.160724,3,0.345276,0.050964,-0.067322,-0.934692,-0.73,-1.83,-15.46,1.575151,0.451701,-15.498652,111.144125,56.090341,-15.497801,0.546875,0.546875,111.3812352,56.29895671,-15.49338656,FALSE,238.3107541,251.2795924,0.728125,0.713693786,-9.66024037,2.603473114,-14.21534236,3.294971147
2.041026,111.159738,19.160724,3,0.346924,0.052002,-0.06665,-0.934082,-0.64,-1.46,-15.29,1.738862,0.162719,-15.273352,111.646384,55.961843,-15.275825,0.5625,0.5625,111.8455266,56.11497716,-15.29023308,FALSE,237.7889737,250.947505,0.7375,0.692702672,-9.645534438,2.606199603,-14.30101174,3.318089069
2.049892,111.81666,19.156082,3,0.348694,0.053284,-0.06604,-0.933411,-0.32,-1.87,-15.25,1.255562,0.296255,-15.313325,112.196909,55.899143,-15.312911,0.578125,0.578125,112.3171581,55.94555666,-15.31155339,FALSE,237.3353877,250.6869599,0.746875,0.6996157,-9.632260156,2.608234234,-14.3864702,3.341204655
2.062167,111.635141,19.174649,3,0.350525,0.054688,-0.065491,-0.932678,0.89,-1.04,-15.63,0.973456,-1.122899,-15.619286,112.700178,55.47461,-15.615909,0.556125,0.556125,112.9365859,55.66832928,-15.59567674,FALSE,237.4079487,250.1107686,0.733675,0.743093057,-9.618579558,2.603160707,-14.50462223,3.373189591
2.070796,112.476725,19.160724,3,0.352539,0.056274,-0.065002,-0.931824,0.47,-1.92,-15.35,0.71578,-0.136286,-15.459586,113.105929,55.24055,-15.461308,0.538125,0.538125,113.3710888,55.47312197,-15.47002691,FALSE,237.5031022,249.705233,0.722875,0.732080254,-9.611291349,2.597727953,-14.58758951,3.395628825
2.079687,113.419809,19.170007,3,0.354614,0.057983,-0.064636,-0.930969,1,-1.58,-15.39,0.593888,-0.717634,-15.475167,113.697732,55.236513,-15.475014,0.546875,0.546875,113.8423612,55.30703714,-15.47477266,FALSE,237.2023502,249.4630003,0.728125,0.737101189,-9.60546922,2.593931852,-14.67301762,3.418708349
2.092321,113.512918,19.165366,3,0.356689,0.059753,-0.064331,-0.930115,0.56,-1.61,-15.39,0.947502,-0.374419,-15.450564,114.334568,54.965079,-15.450834,0.53125,0.53125,114.4901943,55.04467976,-15.45242131,FALSE,237.2156157,248.986022,0.71875,0.741208218,-9.59573226,2.587033353,-14.79431161,3.451436506
2.101186,113.981638,19.160724,3,0.358582,0.061584,-0.064087,-0.92926,2.17,-1.68,-15.31,-0.245884,-1.376441,-15.491042,114.706826,54.667464,-15.490599,0.51525,0.51525,114.9295299,54.84319241,-15.48807903,FALSE,237.2421887,248.5634274,0.70915,0.751383047,-9.592622338,2.579272666,-14.87936399,3.474336157
2.110047,114.82966,19.165366,3,0.360352,0.063416,-0.064026,-0.928467,1.08,-1.82,-15.34,0.520302,-0.521653,-15.46776,115.230293,54.583366,-15.468012,0.515625,0.515625,115.3867495,54.66828483,-15.46931888,FALSE,237.0600477,248.273777,0.709375,0.75370029,-9.591406529,2.570863161,-14.96435883,3.497153834
2.122412,115.58201,19.165366,3,0.361938,0.065247,-0.064026,-0.927673,1.82,-2.27,-15.24,-0.281608,-0.671594,-15.498132,116.01784,54.538005,-15.4978,0.539625,0.539625,116.0383428,54.44574964,-15.49592146,FALSE,236.4504765,247.9769608,0.723775,0.76344597,-9.589930803,2.563485911,-15.08294745,3.528896947
2.131208,116.239206,19.160724,3,0.363464,0.066956,-0.064148,-0.927002,1.94,-2.13,-15.22,-0.228139,-0.843443,-15.465629,116.568689,54.502214,-15.465984,0.555625,0.555625,116.5032715,54.29151006,-15.46795304,FALSE,236.0629427,247.7857576,0.733375,0.764013284,-9.59217267,2.556822778,-15.16731034,3.551416065
2.143021,116.991648,19.160724,3,0.365112,0.068542,-0.064453,-0.926208,2.19,-1.93,-15.29,-0.212928,-1.161302,-15.521317,117.348518,54.50048,-15.520707,0.579625,0.579625,117.1361808,54.09882498,-15.51722291,FALSE,235.5678496,247.6003922,0.747775,0.776165946,-9.594777833,2.544981752,-15.28063806,3.581549873
2.151539,117.836283,19.156082,3,0.366577,0.070007,-0.064819,-0.925476,2.29,-2.51,-15.17,-0.645688,-0.801764,-15.511712,117.970227,54.58992,-15.511811,0.597625,0.597625,117.6080015,53.982191,-15.5121348,FALSE,235.3010302,247.5776654,0.758575,0.778828577,-9.598434678,2.536621054,-15.36238196,3.60319242
2.16041,117.839914,19.165366,3,0.367859,0.071289,-0.065247,-0.924866,2.39,-2.11,-15.31,-0.381359,-1.172104,-15.589783,118.41183,54.396045,-15.588924,0.615625,0.615625,118.0744188,53.82865701,-15.58382582,FALSE,234.9066887,247.3939529,0.769375,0.793125664,-9.602990145,2.527865962,-15.44754988,3.625655952
2.17289,118.216196,19.165366,3,0.368958,0.07251,-0.065735,-0.924316,2.07,-2.63,-15.12,-0.493542,-0.568384,-15.467718,119.026207,54.122233,-15.469054,0.639625,0.639625,118.7193929,53.59979998,-15.47662581,FALSE,234.3329652,247.0717132,0.783775,0.785061376,-9.608449527,2.517005317,-15.56742926,3.657135949
2.181764,119.157206,19.165366,3,0.369995,0.073486,-0.066345,-0.923706,2.78,-1.6,-14.95,-0.302928,-1.799112,-15.180964,119.54834,54.046786,-15.184139,0.657625,0.657625,119.1926332,53.46025447,-15.20364721,FALSE,234.0129311,246.9562979,0.794575,0.751148677,-9.611983465,2.506500737,-15.65271032,3.679425245
2.190461,119.814615,19.160724,3,0.371338,0.07428,-0.067139,-0.923096,2.36,-2.49,-14.87,-0.584781,-0.883333,-15.223817,120.103761,54.028908,-15.22338,0.675625,0.675625,119.6645808,53.33816836,-15.22226957,FALSE,233.7587015,246.9139289,0.805375,0.757196569,-9.615843667,2.494836125,-15.73632253,3.701173558
2.210749,119.721964,19.165366,3,0.374268,0.075256,-0.069153,-0.921692,1.99,-2.39,-14.98,-0.180601,-0.761618,-15.279405,121.072025,53.561249,-15.278787,0.671875,0.671875,120.6931252,52.96023405,-15.2750216,FALSE,233.5556534,246.3544388,0.803125,0.775528041,-9.623607702,2.478149742,-15.93148752,3.751619527
2.220037,121.224314,19.156082,3,0.375793,0.075378,-0.070312,-0.920959,1.39,-3.25,-15.24,-0.275476,0.212815,-15.640691,121.619161,53.500541,-15.636703,0.691875,0.691875,121.1863258,52.82075933,-15.6126368,FALSE,233.2435583,246.2631613,0.815125,0.827792565,-9.625725724,2.475601101,-16.02088143,3.774624746
2.229962,121.316446,19.151441,3,0.377625,0.075256,-0.071594,-0.920105,1.45,-3.1,-15.28,-0.198495,0.016107,-15.657299,122.050207,53.193031,-15.657072,0.671875,0.671875,121.6904654,52.63944957,-15.65387252,FALSE,233.4556791,246.0087912,0.803125,0.839428032,-9.628077805,2.476737127,-16.11642843,3.799200724
2.266543,121.885508,19.160724,3,0.38385,0.073181,-0.077026,-0.917236,0.22,-4.21,-15.74,-0.026022,1.421819,-16.23257,123.929415,52.521087,-16.226228,0.65625,0.65625,123.5149631,51.93677162,-16.18817246,FALSE,233.1281636,244.9074658,0.79375,0.941134667,-9.632184333,2.503037512,-16.46870825,3.890283292
2.275064,123.191843,19.132874,3,0.38385,0.073181,-0.077026,-0.917236,1.99,-3.84,-15.5,-1.045349,-0.080616,-16.057874,124.118545,51.800904,-16.059729,0.64025,0.64025,123.9169869,51.7427494,-16.06787053,FALSE,233.1168377,244.5055346,0.78415,0.930321342,-9.636748909,2.508751708,-16.55080354,3.91163602
2.283095,124.13331,19.132874,3,0.384705,0.072449,-0.078125,-0.91687,0.16,-4.22,-15.21,-0.105227,1.473558,-15.716096,124.539026,51.684111,-15.719883,0.62225,0.62225,124.3217429,51.59960122,-15.74308418,FALSE,233.3110968,244.3182374,0.77335,0.886937942,-9.641369047,2.514345066,-16.62821482,3.931806266
2.294676,124.602518,19.128232,3,0.384949,0.071777,-0.079041,-0.916748,1.53,-3.91,-15.3,-0.831558,0.233403,-15.842137,125.157564,51.53448,-15.84079,0.60025,0.60025,124.9019359,51.39448275,-15.83453766,FALSE,233.5263195,244.051707,0.76015,0.907812458,-9.646793501,2.524229224,-16.73990293,3.96098213
2.302971,125.078531,19.142157,3,0.384888,0.070984,-0.079712,-0.916748,-0.46,-3.08,-15.36,1.121945,1.052301,-15.596816,125.558576,51.365034,-15.599505,0.58225,0.58225,125.3149358,51.24565436,-15.61505404,FALSE,233.7032046,243.8515598,0.74935,0.879827626,-9.645589121,2.529561681,-16.81991809,3.981942728
2.314604,125.735788,19.137516,3,0.384583,0.070251,-0.080261,-0.916931,1.42,-3.73,-15.32,-0.655195,0.134303,-15.817245,126.212824,51.260693,-15.814845,0.56025,0.56025,125.9010824,51.05151075,-15.80173289,FALSE,233.9544649,243.6394095,0.73615,0.915041226,-9.642874269,2.536463563,-16.93210943,4.011409264
2.323016,126.392588,19.132874,3,0.384338,0.069397,-0.080566,-0.917053,-0.01,-3.49,-15.38,0.495878,0.968629,-15.733425,126.70186,51.209668,-15.734322,0.5625,0.5625,126.3331553,50.92299353,-15.73866559,FALSE,233.9037516,243.5439984,0.7375,0.909985592,-9.643544357,2.541102495,-17.01322811,4.032765506
2.331631,126.680612,19.146799,3,0.384216,0.068542,-0.080811,-0.917175,0.36,-3.28,-14.73,0.240972,0.603782,-15.081088,127.135614,51.070935,-15.088286,0.5625,0.5625,126.7666937,50.78160658,-15.13153743,FALSE,233.8448875,243.3981222,0.7375,0.821352648,-9.640370375,2.547875656,-17.09629357,4.05468628
2.343924,127.33851,19.142157,3,0.383911,0.067749,-0.080933,-0.917297,0.23,-3.06,-14.97,0.509175,0.509157,-15.264286,127.827805,50.962862,-15.262346,0.5865,0.5865,127.3872083,50.59193317,-15.25410151,FALSE,233.4463714,243.242815,0.7519,0.846582095,-9.635759597,2.554716335,-17.2147743,4.086049361
2.352694,127.810465,19.146799,3,0.383423,0.066956,-0.080933,-0.917603,0.71,-3.04,-14.91,0.156344,0.150286,-15.231783,128.268559,50.821943,-15.232119,0.59375,0.59375,127.8293136,50.45681709,-15.23349528,FALSE,233.3149235,243.1332897,0.75625,0.84790067,-9.632841296,2.557607993,-17.29926712,4.108466904
2.36157,128.279825,19.142157,3,0.382935,0.066162,-0.080811,-0.917847,-0.81,-2.19,-14.6,1.72611,0.671113,-14.66909,128.722705,50.696248,-14.675294,0.59375,0.59375,128.2767332,50.32220889,-14.71239124,FALSE,233.298856,243.0320127,0.75625,0.770537871,-9.624486965,2.561253362,-17.38473114,4.13118441
2.374065,128.748697,19.137516,3,0.382751,0.06543,-0.080627,-0.91803,-0.22,-2.81,-14.82,0.903657,0.655781,-15.044303,129.363367,50.51833,-15.040236,0.609375,0.609375,128.8965369,50.1275088,-15.01883869,FALSE,233.0239437,242.859697,0.765625,0.825076235,-9.608057496,2.569543132,-17.50488646,4.163239061
2.382779,129.506754,19.146799,3,0.382446,0.064758,-0.080383,-0.918213,-0.58,-2.41,-14.67,1.384565,0.648515,-14.799198,129.84935,50.450025,-14.801855,0.625,0.625,129.3414669,50.00845371,-14.81604886,FALSE,232.8393089,242.8211559,0.775,0.79673454,-9.598087713,2.57522595,-17.58856764,4.18565482
2.391428,129.60261,19.151441,3,0.382446,0.064087,-0.080078,-0.918274,0.21,-2.39,-14.56,0.804502,0.083027,-14.73417,130.205729,50.223878,-14.734916,0.609375,0.609375,129.7649561,49.86903108,-14.74045176,FALSE,233.0083244,242.6793291,0.765625,0.789096772,-9.588621092,2.578389503,-17.67154056,4.20794163
2.403815,130.167948,19.151441,3,0.382568,0.063599,-0.079712,-0.918274,0.14,-2.66,-14.6,0.655928,0.320799,-14.823019,130.814533,50.025751,-14.822048,0.609375,0.609375,130.3709081,49.67210257,-14.81668443,FALSE,232.9418039,242.4883956,0.765625,0.807663665,-9.579575919,2.580890599,-17.79025879,4.239895632
2.41258,130.732767,19.151441,3,0.382629,0.063232,-0.079346,-0.918335,-0.68,-2.38,-14.73,1.431912,0.704171,-14.851061,131.226031,49.861145,-14.850741,0.59375,0.59375,130.8021,49.53738887,-14.84842363,FALSE,233.1304606,242.3755421,0.75625,0.817210375,-9.57042596,2.58538253,-17.87418367,4.262536824
2.421589,131.486277,19.151441,3,0.382751,0.062988,-0.078918,-0.918335,0.53,-2.23,-14.58,0.651518,-0.239181,-14.742749,131.758415,49.832489,-14.743939,0.61375,0.61375,131.2595434,49.41932565,-14.75085637,FALSE,232.9085282,242.3569108,0.76825,0.805218998,-9.56104115,2.587477078,-17.96036137,4.28583797
2.434125,131.394052,19.156082,3,0.382874,0.062805,-0.078552,-0.918274,-0.24,-2.06,-14.63,1.30702,0.194477,-14.717047,132.264363,49.50601,-14.717344,0.59375,0.59375,131.853933,49.20247144,-14.71964087,FALSE,233.0373113,242.0786411,0.75625,0.807200278,-9.548765034,2.587196873,-18.08014163,4.318272826
2.442836,132.524424,19.156082,3,0.383118,0.062866,-0.078064,-0.918274,0,-2.92,-14.41,0.49978,0.655725,-14.679763,132.779111,49.489334,-14.680177,0.61175,0.61175,132.2939244,49.09014096,-14.68282243,FALSE,232.8510372,242.067504,0.76705,0.804817555,-9.540895516,2.590899928,-18.16328665,4.340826027
2.454662,132.901743,19.156082,3,0.383301,0.062988,-0.077637,-0.918213,-0.25,-2.26,-14.53,1.15136,0.377241,-14.656852,133.402988,49.365604,-14.657109,0.63575,0.63575,132.8748364,48.91838635,-14.65884445,FALSE,232.5309964,241.9598407,0.78145,0.806490806,-9.531132325,2.597007856,-18.27605955,4.371502125
2.463249,133.74766,19.151441,3,0.383301,0.063232,-0.077271,-0.918213,0.56,-2.22,-14.49,0.60898,-0.21224,-14.655586,133.937756,49.387557,-14.655603,0.65175,0.65175,133.3166316,48.82202721,-14.65583599,FALSE,232.4387423,242.0159665,0.79105,0.809175095,-9.523574306,2.597716288,-18.35787093,4.393805674
2.471854,134.216257,19.146799,3,0.383362,0.06366,-0.076782,-0.918213,0.14,-2.28,-14.17,0.810171,0.176743,-14.328973,134.451857,49.376773,-14.332573,0.67175,0.67175,133.7596681,48.72710033,-14.35404996,FALSE,232.3048851,242.0795181,0.80305,0.761741077,-9.517468409,2.597563562,-18.43979502,4.416158365
2.484385,134.59733,19.156082,3,0.383606,0.064209,-0.076416,-0.918091,0.27,-1.43,-14.24,1.332208,-0.496948,-14.243373,135.116407,49.254722,-14.244356,0.69575,0.69575,134.3803497,48.56219181,-14.25186415,FALSE,232.0709304,242.0420221,0.81745,0.749676893,-9.504045333,2.595557317,-18.55897431,4.448695864
2.493221,135.066996,19.151441,3,0.384033,0.064819,-0.076172,-0.917908,0.22,-2.66,-14.19,0.516397,0.40963,-14.4238,135.535088,49.106135,-14.421823,0.71375,0.71375,134.8215077,48.45281296,-14.41060906,FALSE,231.9244645,242.0473828,0.82825,0.779978719,-9.495878196,2.595171546,-18.64291597,4.471628504
2.502114,135.63209,19.151441,3,0.384583,0.065552,-0.075867,-0.917603,0.79,-1.77,-14.37,0.786187,-0.61577,-14.465703,136.002464,49.016975,-14.46522,0.73175,0.73175,135.2703418,48.34900375,-14.46147618,FALSE,231.8086881,242.0831673,0.83905,0.791992659,-9.490086256,2.594254945,-18.72733706,4.494703289
2.51462,136.574716,19.151441,3,0.385254,0.066406,-0.075684,-0.917297,0.8,-2.37,-14.23,0.356723,-0.181885,-14.442625,136.799108,49.06198,-14.442874,0.75575,0.75575,135.9081582,48.21354282,-14.44407125,FALSE,231.710282,242.182812,0.85345,0.793469121,-9.48293964,2.589267208,-18.8459754,4.527115853
2.523225,136.670633,19.156082,3,0.385925,0.067322,-0.0755,-0.916931,0.95,-2.32,-14.25,0.313071,-0.312392,-14.462071,137.179213,48.88199,-14.46186,0.77375,0.77375,136.3394512,48.11158346,-14.46069005,FALSE,231.5932931,242.2096445,0.86425,0.799693395,-9.480057851,2.587140581,-18.92756369,4.549387348
2.532152,136.767099,19.160724,3,0.386719,0.068237,-0.075439,-0.916565,0.7,-2.54,-14.44,0.390244,0.013069,-14.673196,137.482239,48.582974,-14.670867,0.79175,0.79175,136.7683049,47.98226659,-14.65689252,FALSE,231.389874,242.1262738,0.87505,0.837929121,-9.476918605,2.585804553,-19.01217816,4.572476788
2.544771,137.613871,19.156082,3,0.387573,0.069153,-0.075439,-0.916138,0.83,-1.85,-14.64,0.843931,-0.563813,-14.74486,138.136646,48.448998,-14.744044,0.8125,0.8125,137.384391,47.81277662,-14.73811112,FALSE,231.2179229,242.0723017,0.8875,0.858021115,-9.469131578,2.582329634,-19.13171826,4.605085131
2.553661,138.275583,19.160724,3,0.388367,0.070129,-0.075439,-0.91571,0.83,-2.54,-14.38,0.3384,-0.057892,-14.622134,138.611735,48.379512,-14.623477,0.8305,0.8305,137.8315342,47.71170646,-14.63103177,FALSE,231.1341506,242.1205764,0.8983,0.842937758,-9.463876116,2.579566155,-19.21587548,4.628029758
2.562546,138.648935,19.151441,3,0.389099,0.071106,-0.075439,-0.915344,1.27,-2.48,-14.43,0.112981,-0.411826,-14.690331,139.053001,48.264388,-14.689595,0.8485,0.8485,138.2739417,47.60672499,-14.68578155,FALSE,231.0372744,242.1492356,0.9091,0.85627456,-9.461870856,2.577479433,-19.29995311,4.650939933
2.574871,138.36735,19.156082,3,0.389832,0.072021,-0.0755,-0.914917,1.53,-2.54,-14.64,-0.041964,-0.56984,-14.926325,139.425236,47.80634,-14.923716,0.8245,0.8245,138.8356423,47.39389393,-14.90787049,FALSE,231.1923226,241.873881,0.8947,0.903336226,-9.461433214,2.571429916,-19.41656797,4.682670086
2.58346,139.499002,19.156082,3,0.390503,0.073059,-0.075562,-0.914551,1.44,-3.05,-14.86,-0.267405,-0.165719,-15.2347,139.859136,47.707562,-15.231273,0.8065,0.8065,139.2545892,47.28198807,-15.2096256,FALSE,231.456066,241.8536486,0.8839,0.961341306,-9.462761799,2.568271058,-19.49783793,4.704742532
2.592325,139.783731,19.160724,3,0.390991,0.074036,-0.075623,-0.914307,1.5,-2.37,-14.82,0.189787,-0.662216,-15.067345,140.257178,47.543062,-15.069152,0.7885,0.7885,139.6784797,47.15425173,-15.07826078,FALSE,231.6724086,241.7770289,0.8731,0.943041844,-9.463105841,2.564601236,-19.58172684,4.727493989
2.604932,139.972025,19.160724,3,0.391357,0.074951,-0.075745,-0.914062,1.91,-2.07,-14.79,0.14233,-1.156247,-15.010664,140.76326,47.240492,-15.011309,0.7645,0.7645,140.257216,46.94502857,-15.01585004,FALSE,231.8461016,241.5378067,0.8587,0.940194815,-9.461012341,2.553138555,-19.70101501,4.759753662
2.613769,140.630228,19.156082,3,0.391663,0.075867,-0.075806,-0.913818,2.05,-2.65,-14.89,-0.314982,-0.862711,-15.234609,141.137081,47.047627,-15.232148,0.7465,0.7465,140.6694885,46.80955612,-15.21782579,FALSE,232.0210833,241.4216748,0.8479,0.982333739,-9.461775204,2.544217789,-19.78462535,4.782276331
2.625641,141.287973,19.151441,3,0.391968,0.07666,-0.075928,-0.913635,1.47,-2.96,-14.83,-0.126552,-0.219873,-15.19168,141.7434,46.929986,-15.192126,0.75,0.75,141.2272362,46.63300686,-15.19368591,FALSE,231.9700375,241.2922528,0.85,0.985367626,-9.46439615,2.53779157,-19.8969711,4.812443138
2.634525,142.138742,19.156082,3,0.39209,0.077393,-0.076111,-0.913513,1.6,-1.51,-14.97,0.857341,-1.309876,-15.049592,142.287727,46.970403,-15.051162,0.768,0.768,141.6649875,46.52984553,-15.0606469,FALSE,231.8798372,241.3292407,0.8608,0.965283772,-9.461149985,2.530996425,-19.98103838,4.834958694
2.643236,141.854441,19.151441,3,0.392334,0.078003,-0.076355,-0.91333,1.66,-3.76,-15.1,-0.722451,0.167447,-15.63181,142.556562,46.653059,-15.625412,0.75,0.75,142.0593699,46.38464382,-15.5879903,FALSE,232.001648,241.160499,0.85,1.068891861,-9.460562472,2.526020576,-20.0634519,4.856984532
2.655447,142.138742,19.156082,3,0.392517,0.078491,-0.076599,-0.913208,0.91,-2.19,-14.61,0.810855,-0.317363,-14.775597,142.990184,46.30496,-14.784962,0.726,0.726,142.6011043,46.16398323,-14.83792392,FALSE,232.0891069,240.8486185,0.8356,0.939047502,-9.460022721,2.525105263,-20.17897153,4.887824181
2.66424,142.893625,19.156082,3,0.392395,0.078918,-0.076904,-0.913147,1.96,-2.54,-14.82,-0.090808,-0.864449,-15.138354,143.365528,46.129761,-15.134459,0.71,0.71,143.0010104,46.02613946,-15.11530497,FALSE,232.2136612,240.716608,0.826,0.996796879,-9.456857035,2.519909427,-20.26213959,4.910004588
2.673048,143.64802,19.156082,3,0.392029,0.079346,-0.077148,-0.913269,2.1,-2.33,-14.8,-0.027767,-1.108171,-15.088077,143.862299,46.113884,-15.088588,0.71875,0.71875,143.4174573,45.90831332,-15.09016593,FALSE,232.1562907,240.6791945,0.83125,0.99717254,-9.457379239,2.511222009,-20.34543789,4.932161691
2.685587,144.121744,19.160724,3,0.391724,0.079651,-0.077515,-0.91333,1.57,-2.34,-14.29,0.233288,-0.680813,-14.54739,144.523192,46.035309,-14.553353,0.74275,0.74275,143.9981931,45.72790276,-14.58903183,FALSE,231.9059739,240.5664533,0.84565,0.90966769,-9.456090725,2.500005973,-20.46401589,4.963579584
2.694462,144.968607,19.156082,3,0.391968,0.079834,-0.07782,-0.913208,1.68,-2.66,-13.96,-0.1265,-0.523537,-14.299987,145.075355,46.104369,-14.302779,0.76075,0.76075,144.4306738,45.63452157,-14.32216255,FALSE,231.8548167,240.6406816,0.85645,0.862388877,-9.455616853,2.49466167,-20.54793659,4.985743422
2.703192,145.065134,19.160724,3,0.392578,0.079956,-0.078308,-0.912903,1.37,-2.46,-14.31,0.306124,-0.475017,-14.573449,145.473994,45.972865,-14.570467,0.77875,0.77875,144.8398713,45.5242554,-14.55417027,FALSE,231.7303,240.62746,0.86725,0.911129229,-9.454832795,2.490302982,-20.63048071,5.007502793
2.715544,145.911539,19.156082,3,0.393188,0.079956,-0.078796,-0.912598,0.76,-2.93,-13.97,0.323222,0.302109,-14.287338,146.18212,45.972467,-14.290458,0.80275,0.80275,145.425713,45.37731362,-14.3078094,FALSE,231.6110553,240.6514146,0.88165,0.869418541,-9.450945954,2.489235102,-20.7472428,5.03825642
2.72437,145.723154,19.156082,3,0.393738,0.079895,-0.079285,-0.912292,0.83,-2.03,-14.16,0.953587,-0.389358,-14.29176,146.438805,45.644655,-14.291746,0.82075,0.82075,145.8207264,45.24454023,-14.29299131,FALSE,231.4109783,240.5397375,0.89245,0.871647627,-9.445311396,2.488850072,-20.83063198,5.06022471
2.733194,146.666147,19.156082,3,0.394348,0.079773,-0.079834,-0.911987,0.93,-3.38,-14.05,-0.08799,0.44276,-14.473684,146.914312,45.611927,-14.471679,0.83875,0.83875,146.2408217,45.14648507,-14.45982123,FALSE,231.3491435,240.586257,0.90325,0.908016589,-9.441492382,2.489085682,-20.91396056,5.082187362
2.7458,146.482462,19.165366,3,0.394958,0.079651,-0.080383,-0.911682,1.36,-1.39,-14.12,1.045693,-1.239694,-14.160713,147.348592,45.259117,-14.164139,0.828125,0.828125,146.7930483,44.94363506,-14.18366062,FALSE,231.3686179,240.3673409,0.896875,0.861815109,-9.43545598,2.484062607,-21.03294196,5.113533116
2.754675,147.328958,19.160724,3,0.39563,0.079529,-0.080994,-0.911377,0.42,-3.46,-14.22,0.238892,0.818803,-14.616059,147.743333,45.120666,-14.611079,0.828125,0.828125,147.197979,44.826194,-14.58288534,FALSE,231.4062008,240.3268575,0.896875,0.945415423,-9.429755634,2.482194903,-21.11665634,5.135570884
2.766477,147.517893,19.160724,3,0.396606,0.079285,-0.081604,-0.910889,1.32,-2.4,-14.03,0.343583,-0.561417,-14.279702,148.201838,44.857045,-14.283354,0.804125,0.804125,147.7159543,44.64102295,-14.30296226,FALSE,231.5705023,240.1441026,0.882475,0.897366616,-9.426318449,2.483713738,-21.22792603,5.164874711
2.775359,148.272654,19.160724,3,0.397766,0.079163,-0.082214,-0.9104,-0.02,-2.39,-14.25,1.299564,0.380748,-14.385474,148.622629,44.760816,-14.384348,0.8125,0.8125,148.1196289,44.52416693,-14.37914369,FALSE,231.5297478,240.1065538,0.8875,0.917378642,-9.419021233,2.482911387,-21.31161819,5.186931493
2.783949,148.553995,19.156082,3,0.398743,0.078979,-0.082764,-0.909912,1.29,-2.16,-14.4,0.61723,-0.771171,-14.584721,148.984446,44.606509,-14.582513,0.796875,0.796875,148.5040743,44.40383159,-14.56894908,FALSE,231.6822807,240.0374395,0.878125,0.960672985,-9.410788603,2.48123452,-21.39249222,5.2082525
2.796185,149.119303,19.156082,3,0.399658,0.078857,-0.083313,-0.909485,0.67,-2.16,-13.96,0.942492,-0.291288,-14.107556,149.572765,44.488371,-14.11279,0.818875,0.818875,149.0498308,44.23065798,-14.14295413,FALSE,231.4847548,239.9319134,0.891325,0.881541384,-9.401246223,2.474734396,-21.50758425,5.238573117
2.804859,149.875193,19.156082,3,0.40033,0.078796,-0.083801,-0.909119,1.02,-2.25,-14.15,0.688263,-0.522081,-14.33803,150.055948,44.497014,-14.335548,0.836875,0.836875,149.4541964,44.13595045,-14.32306375,FALSE,231.4319271,239.9808139,0.902125,0.922129499,-9.394173639,2.471206815,-21.58909998,5.260023664
2.813734,150.159708,19.160724,3,0.400696,0.078735,-0.08429,-0.908936,0.29,-2.56,-14.25,0.978131,0.202262,-14.446548,150.483737,44.412039,-14.445325,0.856875,0.856875,149.860393,44.02862364,-14.43707427,FALSE,231.3274688,239.9847963,0.914125,0.950039507,-9.386779016,2.469787618,-21.67244046,5.281949327
2.826233,150.726694,19.160724,3,0.40094,0.078796,-0.084717,-0.908752,0.43,-3.03,-14.29,0.563343,0.395715,-14.597794,151.116216,44.327772,-14.596114,0.878875,0.878875,150.4248598,43.86832046,-14.58546356,FALSE,231.2051813,239.9497369,0.927325,0.987686083,-9.377145574,2.473524675,-21.78970561,5.312842557
2.835089,151.195536,19.156082,3,0.400879,0.078857,-0.085144,-0.908752,1.13,-2.56,-14.27,0.435771,-0.444462,-14.528454,151.533893,44.234308,-14.529199,0.896875,0.896875,150.8311717,43.76355125,-14.53282778,FALSE,231.1348619,239.9650095,0.938125,0.981482161,-9.372721497,2.473308823,-21.87273002,5.334747136
2.84378,151.195536,19.156082,3,0.400635,0.079041,-0.085571,-0.908813,0.7,-2.35,-14.08,0.842163,-0.256153,-14.264787,151.808665,43.96755,-14.2677,0.916875,0.916875,151.2102338,43.63644923,-14.28535112,FALSE,230.9557931,239.8705217,0.950125,0.935478304,-9.367168235,2.470264301,-21.95416421,5.356229433
2.856266,151.951059,19.156082,3,0.400391,0.079224,-0.086121,-0.908813,1.87,-2.67,-13.89,-0.195396,-0.905464,-14.237256,152.402557,43.847518,-14.237592,0.938875,0.938875,151.76346,43.47075101,-14.24094586,FALSE,230.8219543,239.8077924,0.963325,0.93327057,-9.363130469,2.463012326,-22.07109747,5.387027879
2.864956,151.951059,19.156082,3,0.400085,0.079468,-0.086609,-0.908875,-0.01,-2.55,-13.8,1.137083,0.40742,-13.981524,152.636908,43.525199,-13.984346,0.920875,0.920875,152.1315817,43.33510707,-14.00142688,FALSE,230.9291502,239.6728592,0.952525,0.888357063,-9.359038839,2.460848325,-22.15244529,5.408422054
2.87394,152.799082,19.151441,3,0.399902,0.079773,-0.087158,-0.908936,2.81,-2.22,-13.97,-0.459009,-1.927556,-14.284948,153.079674,43.465099,-14.281635,0.90625,0.90625,152.5336832,43.22678353,-14.26319622,FALSE,231.1237122,239.6739925,0.94375,0.948574408,-9.35599293,2.454019874,-22.23651321,5.430499642
2.88659,152.899332,19.165366,3,0.39978,0.080139,-0.087646,-0.908875,0.17,-2.2,-14.11,1.362949,-0.006918,-14.216301,153.570041,43.211541,-14.217021,0.88225,0.88225,153.0706837,43.03484186,-14.21989881,FALSE,231.2745515,239.5021799,0.92935,0.947749612,-9.35027551,2.441784326,-22.35483036,5.461465603
2.895396,153.461252,19.156082,3,0.399841,0.080505,-0.088135,-0.908752,2.5,-1.87,-13.98,0.030435,-1.94879,-14.191135,153.914764,43.037677,-14.19142,0.86625,0.86625,153.4496812,42.91041716,-14.19334176,FALSE,231.405092,239.4228428,0.91975,0.94751321,-9.34414044,2.433173344,-22.43714187,5.482930042
2.907105,153.461252,19.156082,3,0.400024,0.080688,-0.088623,-0.90863,0.81,-2.73,-14.42,0.651115,-0.178518,-14.682968,154.270762,42.67277,-14.677551,0.84225,0.84225,153.9275078,42.71227402,-14.64540382,FALSE,231.4724085,239.1726551,0.90535,1.054952183,-9.340150305,2.420719019,-22.54652905,5.511347155
2.915694,154.313028,19.160724,3,0.400208,0.080811,-0.089172,-0.908508,2.37,-2.12,-14.31,0.031468,-1.743268,-14.554986,154.650429,42.566701,-14.556337,0.82425,0.82425,154.2947466,42.58777284,-14.56192287,FALSE,231.6034989,239.0836348,0.89455,1.042809402,-9.337218953,2.412465909,-22.62673902,5.532103267
2.924533,155.349802,19.156082,3,0.400513,0.080872,-0.089783,-0.908264,0.45,-2.65,-14.02,0.878699,0.044593,-14.248192,155.251704,42.735727,-14.251587,0.84225,0.84225,154.7031557,42.50243963,-14.27226146,FALSE,231.6066715,239.1798516,0.90535,0.983179262,-9.33319647,2.404958615,-22.70925292,5.553393875
2.93693,155.446421,19.160724,3,0.400818,0.080933,-0.090576,-0.908081,1.54,-2.96,-14.12,-0.035713,-0.589817,-14.496848,155.843329,42.6354,-14.494146,0.86625,0.86625,155.239444,42.33928303,-14.47961769,FALSE,231.4570258,239.1204303,0.91975,1.036811344,-9.327971221,2.401579044,-22.82492417,5.583187199
2.945828,156.108744,19.165366,3,0.401123,0.080994,-0.091431,-0.907837,0.45,-2,-14.14,1.390298,-0.440077,-14.213214,156.308083,42.627219,-14.21631,0.88425,0.88425,155.6393091,42.24217387,-14.23365252,FALSE,231.423063,239.1664853,0.93055,0.986719928,-9.321944672,2.396997045,-22.90789764,5.604536064
2.95469,155.257852,19.160724,3,0.401367,0.080994,-0.092407,-0.907654,2.28,-2.28,-14.12,-0.019277,-1.639309,-14.390402,156.346392,42.053943,-14.388484,0.86425,0.86425,155.9769064,42.06786923,-14.37837617,FALSE,231.3872605,238.8704257,0.91855,1.027463116,-9.315869678,2.387783286,-22.9904818,5.625737425
2.967138,156.390848,19.160724,3,0.401611,0.080994,-0.093445,-0.90741,0.48,-3.15,-13.83,0.503852,0.275941,-14.180674,156.883158,41.895639,-14.182964,0.84225,0.84225,156.4942171,41.88207693,-14.19584174,FALSE,231.5091592,238.7143186,0.90535,0.99518071,-9.312853683,2.379297684,-23.10642697,5.655407737
2.975703,156.671884,19.156082,3,0.401489,0.080933,-0.094543,-0.907349,1.69,-2.31,-13.83,0.310534,-1.207353,-14.067937,157.17307,41.680487,-14.069205,0.82425,0.82425,156.8437443,41.74903006,-14.07774987,FALSE,231.5908068,238.5828816,0.89455,0.974566752,-9.309366075,2.375308912,-23.18617663,5.67576934
2.984471,157.334818,19.160724,3,0.401367,0.080811,-0.095764,-0.907288,0.42,-2.78,-13.8,0.823594,0.017901,-14.059371,157.590146,41.62544,-14.059479,0.828125,0.828125,157.2152714,41.63359458,-14.06078103,FALSE,231.5824739,238.5379742,0.896875,0.976082057,-9.304394058,2.370094354,-23.26777935,5.696573188
2.997049,158.09028,19.160724,3,0.401306,0.080627,-0.096985,-0.907227,0.5,-4.29,-13.82,-0.291583,0.918097,-14.447109,158.274251,41.647368,-14.442837,0.852125,0.852125,157.7548153,41.47908012,-14.41746987,FALSE,231.4765737,238.521367,0.911275,1.065883365,-9.301048241,2.375980845,-23.38478898,5.726421255
3.005985,158.09028,19.160724,3,0.401245,0.080444,-0.098267,-0.907166,0.55,-3.22,-13.84,0.452289,0.138322,-14.212447,158.586248,41.437915,-14.214986,0.870125,0.870125,158.1232335,41.34817162,-14.22817638,FALSE,231.3197784,238.4197337,0.922075,1.028574712,-9.300330207,2.380700926,-23.46789994,5.747674109
3.014877,158.846292,19.160724,3,0.401001,0.0802,-0.099487,-0.907104,1.04,-3.83,-13.82,-0.303803,0.143547,-14.374612,159.038088,41.421141,-14.372853,0.890125,0.890125,158.5074003,41.24425249,-14.36337744,FALSE,231.2488944,238.4315021,0.934075,1.065398771,-9.299670038,2.381954115,-23.55059554,5.768848873
3.027406,159.223551,19.160724,3,0.400696,0.079956,-0.100647,-0.907166,1.14,-3.88,-13.81,-0.400459,0.071663,-14.384197,159.615929,41.317414,-14.384072,0.912125,0.912125,159.0326969,41.07722152,-14.38259972,FALSE,231.120845,238.3596187,0.947275,1.078615058,-9.304081887,2.383302298,-23.66713874,5.798700822
3.036015,159.883005,19.156082,3,0.40033,0.079712,-0.101746,-0.907227,0.41,-3.94,-13.78,0.044195,0.626823,-14.324311,160.05762,41.314614,-14.324969,0.930125,0.930125,159.4096971,40.98532576,-14.32878291,FALSE,231.0999571,238.408796,0.958075,1.070705686,-9.305615426,2.386308931,-23.74724418,5.819231614
3.044847,160.071634,19.156082,3,0.400024,0.079407,-0.102844,-0.907227,1.07,-3.84,-13.81,-0.3124,0.035727,-14.370354,160.426472,41.193648,-14.369854,0.950125,0.950125,159.7855222,40.87791504,-14.36716466,FALSE,231.0211199,238.4021087,0.970075,1.085482087,-9.306799819,2.389234752,-23.82943661,5.840320415
3.057408,160.827799,19.156082,3,0.399963,0.079102,-0.103821,-0.907166,0.26,-2.98,-13.66,0.807807,0.060399,-13.960192,161.072603,41.182929,-13.964707,0.974125,0.974125,160.323425,40.73206708,-13.99141498,FALSE,230.9681662,238.4217538,0.984475,1.003126686,-9.303688415,2.389838471,-23.94631978,5.870335384
3.066295,160.54664,19.160724,3,0.399719,0.078796,-0.104675,-0.907227,0.66,-4.36,-13.48,-0.475871,0.670567,-14.159079,161.267612,40.820182,-14.156937,0.992125,0.992125,160.6782097,40.59872762,-14.1462158,FALSE,230.8134565,238.3038792,0.995275,1.047107946,-9.302213458,2.393086519,-24.02899511,5.891588311
3.078166,161.113169,19.160724,3,0.399109,0.078491,-0.105408,-0.90741,-0.12,-3.21,-13.61,0.892191,0.453805,-13.948045,161.701148,40.588484,-13.950347,1,1,161.156939,40.42799394,-13.96324869,FALSE,230.7436899,238.1790049,1,1.011414013,-9.29974239,2.399760229,-24.13940702,5.920036253
3.087083,161.20933,19.165366,3,0.39856,0.078125,-0.106018,-0.907654,0.13,-4.16,-13.88,0.113457,0.841978,-14.465677,161.903058,40.236714,-14.459999,0.982,0.982,161.5020605,40.28330702,-14.42713064,FALSE,230.7850422,238.0140281,0.9892,1.132471664,-9.295258709,2.405537477,-24.22231283,5.941460673
3.095909,161.582987,19.156082,3,0.398132,0.07782,-0.106506,-0.907776,-0.25,-3.03,-13.84,1.156882,0.366724,-14.11792,162.154278,39.974465,-14.12169,0.964,0.964,161.843877,40.13861601,-14.14164268,FALSE,230.8215384,237.8470399,0.9784,1.070121896,-9.289652703,2.410871479,-24.30432804,5.962715486
3.107938,161.965586,19.165366,3,0.397522,0.077576,-0.106873,-0.90802,-0.13,-3.88,-13.92,0.494459,0.817697,-14.419562,162.573066,39.722963,-14.416279,0.94,0.94,162.3082934,39.94494392,-14.39824,FALSE,230.8742925,237.6324655,0.964,1.144531919,-9.279720712,2.417995179,-24.41601354,5.991758704
3.116575,162.716654,19.156082,3,0.396729,0.077393,-0.107117,-0.908386,-0.07,-3.5,-13.88,0.71377,0.520898,-14.287368,162.962093,39.663551,-14.288788,0.922,0.922,162.6558348,39.82477019,-14.29587411,FALSE,230.9847014,237.5598798,0.9532,1.125760325,-9.274502975,2.423775902,-24.49613995,6.012667892
3.125274,162.910074,19.165366,3,0.395813,0.077271,-0.107361,-0.908752,-0.36,-2.93,-13.65,1.2608,0.380765,-13.903321,163.289829,39.520676,-13.907569,0.904,0.904,162.9973365,39.69481431,-13.93343772,FALSE,231.0591305,237.4480827,0.9424,1.041591204,-9.265914583,2.427697685,-24.5767815,6.033769377
3.448623,175.229746,19.030756,3,0.339539,0.080994,-0.091553,-0.932617,1.39,-2.17,-12.69,0.312664,-0.73671,-12.924264,175.565787,35.3654,-12.924874,1,1,175.1214488,35.23096247,-13.00168692,FALSE,230.0543861,234.6737976,1,1.023473687,-9.011525578,2.370150455,-27.5317775,6.809459076
3.457406,175.414499,19.021472,3,0.338623,0.080933,-0.092224,-0.932861,1.2,-2.33,-12.74,0.373209,-0.514057,-12.991257,175.80287,35.100975,-12.990526,0.982,0.982,175.4287519,35.11460774,-12.99205719,FALSE,230.1190342,234.6108468,0.9892,1.027159181,-9.008513566,2.364657712,-27.6109125,6.830251986
3.469616,176.558054,19.040039,3,0.337769,0.080872,-0.093079,-0.933105,0.76,-2.46,-12.6,0.603668,-0.134868,-12.845484,176.52856,35.430846,-12.847083,1,1,175.9244826,35.04552293,-12.85672907,FALSE,230.3527758,234.8871915,1,0.98735689,-9.002549732,2.360696025,-27.72087004,6.859100271
3.478396,176.941202,19.049323,3,0.336853,0.080872,-0.093933,-0.93335,1.27,-2.31,-12.62,0.321237,-0.598254,-12.874479,176.98594,35.51031,-12.874177,1,1,176.2963204,35.01636418,-12.87311721,FALSE,230.6453889,235.1665333,1,0.994321726,-8.998489399,2.357477619,-27.7998946,6.879813053
3.487256,176.945902,19.058606,3,0.33606,0.080872,-0.094849,-0.933594,1.17,-2.93,-12.85,0.075389,-0.113493,-13.230963,177.286587,35.379197,-13.227031,1,1,176.6353498,34.93944229,-13.20350903,FALSE,230.7755857,235.2618417,1,1.106426288,-8.996732346,2.35432458,-27.87961344,6.900686337
3.499762,177.988077,19.063248,3,0.33551,0.080811,-0.095825,-0.933655,1.43,-2.21,-12.74,0.301938,-0.835019,-12.978758,177.957436,35.407428,-12.981494,1,1,177.1470415,34.86971782,-12.99600091,FALSE,231.0981929,235.5529773,1,1.042928279,-8.99437292,2.348393534,-27.99211182,6.930092433
3.508561,177.707498,19.06789,3,0.335205,0.08075,-0.096863,-0.933655,0.64,-3.33,-12.78,0.236869,0.48871,-13.211041,178.188001,35.231493,-13.208512,1,1,177.4733962,34.78003328,-13.1945431,FALSE,231.1816253,235.5961414,1,1.113641677,-8.992002439,2.346869948,-28.07124288,6.950749245
3.520396,177.809061,19.081815,3,0.335022,0.080688,-0.097961,-0.933594,1.31,-2.13,-12.52,0.410589,-0.84261,-12.732819,178.483158,35.004038,-12.738061,1,1,177.8783901,34.6173189,-12.76824253,FALSE,231.1467296,235.4887961,1,0.982544733,-8.988171106,2.344775745,-28.17764055,6.978512058
3.529,177.71641,19.086457,3,0.3349,0.080627,-0.099121,-0.933533,0.26,-3.66,-12.75,0.337527,0.929083,-13.230566,178.540513,34.74191,-13.225139,1,1,178.1422193,34.46673274,-13.19509649,FALSE,231.0044327,235.2801475,1,1.13416498,-8.984952711,2.345147752,-28.25496093,6.998688109
3.537613,178.5702,19.091098,3,0.334778,0.080566,-0.10022,-0.933472,1.49,-2.21,-12.71,0.282425,-0.97766,-12.946531,178.848641,34.635561,-12.949601,1,1,178.4478506,34.36425843,-12.96560097,FALSE,231.0342342,235.2651787,1,1.063588278,-8.982282888,2.344938555,-28.33233683,7.018885966
3.550068,178.860727,19.105024,3,0.334534,0.080566,-0.101318,-0.933472,0.65,-3.85,-12.84,-0.0361,0.756325,-13.399183,179.282801,34.470652,-13.394229,1,1,178.8738812,34.2012291,-13.36591854,FALSE,231.0223473,235.1827011,1,1.209967734,-8.980748899,2.343560191,-28.44420161,7.048083592
3.558968,179.239237,19.105024,3,0.334106,0.080627,-0.102417,-0.933472,1.08,-2.42,-12.65,0.475543,-0.599833,-12.901911,179.575335,34.348224,-12.907336,1,1,179.1818264,34.08734181,-12.93750971,FALSE,231.0250428,235.1365459,1,1.071316539,-8.978793378,2.34425658,-28.52412158,7.068944376
3.567811,179.617777,19.105024,3,0.333618,0.080688,-0.103394,-0.933533,-0.25,-2.89,-12.46,1.175861,0.610213,-12.724425,179.891945,34.242794,-12.72644,1,1,179.4914555,33.98307737,-12.74077288,FALSE,231.0556978,235.1228099,1,1.01009488,-8.971491695,2.344302476,-28.60348876,7.08967484
3.580292,179.811502,19.114307,3,0.332947,0.08075,-0.104248,-0.933655,1.03,-3.21,-12.75,0.077808,-0.025843,-13.187883,180.292948,34.065107,-13.182798,1,1,179.9080904,33.8162192,-13.15358066,FALSE,231.0268483,235.0235777,1,1.163769895,-8.963668173,2.347949237,-28.71541313,7.118956837
3.58888,180.472238,19.109665,3,0.33197,0.080872,-0.105042,-0.933899,0.82,-3.09,-12.63,0.296701,0.018231,-13.024918,180.641567,33.985847,-13.026658,1,1,180.2148845,33.72236358,-13.03478901,FALSE,231.0835901,235.041085,1,1.12867968,-8.962060032,2.347916551,-28.7923862,7.139120885
3.597759,180.947153,19.114307,3,0.331299,0.080994,-0.105774,-0.934082,0.74,-2.9,-12.61,0.478738,-0.087123,-12.95118,181.039062,33.924131,-12.952011,1,1,180.5398061,33.63574356,-12.95759449,FALSE,231.1780752,235.0995864,1,1.107342897,-8.95861747,2.347610705,-28.87194505,7.159966678
3.610306,181.233591,19.118949,3,0.33075,0.081116,-0.106445,-0.934204,0.58,-3.16,-12.51,0.433103,0.212074,-12.906976,181.525044,33.795718,-12.907473,1,1,180.9769463,33.49113741,-12.91085945,FALSE,231.2312459,235.0931669,1,1.100342029,-8.952897036,2.348394585,-28.98431294,7.189427067
3.619174,181.427317,19.128232,3,0.330017,0.081299,-0.107056,-0.934326,0.96,-3.19,-12.44,0.119088,-0.008132,-12.877751,181.793378,33.662505,-12.878078,1,1,181.2823444,33.3864794,-12.88029108,FALSE,231.2593196,235.0784873,1,1.0963361,-8.950448621,2.349298863,-29.06369637,7.21025664
3.628031,181.612192,19.118949,3,0.329224,0.081482,-0.107605,-0.93457,0.94,-3.48,-12.39,-0.039377,0.223054,-12.901752,182.033878,33.514015,-12.901492,1,1,181.5795087,33.27453249,-12.90010552,FALSE,231.2603796,235.034164,1,1.110848411,-8.950095621,2.350250646,-29.14296893,7.231068595
3.640486,182.087656,19.12359,3,0.328552,0.081665,-0.108093,-0.934692,0.75,-3.23,-12.42,0.273443,0.139781,-12.851338,182.467283,33.363968,-12.851891,1,1,181.9982546,33.11969867,-12.85507945,FALSE,231.2704996,234.9821043,1,1.104921154,-8.948637975,2.352510201,-29.2544333,7.260355038
3.649078,182.184549,19.128232,3,0.327942,0.081848,-0.108582,-0.934875,0.97,-3.49,-12.52,-0.018705,0.175503,-13.032292,182.664073,33.19283,-13.030304,1,1,182.2769598,33.00329946,-13.01869623,FALSE,231.2427176,234.9080267,1,1.172517405,-8.94754362,2.353864661,-29.33131529,7.280573624
3.658081,182.942362,19.128232,3,0.327209,0.082092,-0.108948,-0.935059,0.83,-3.36,-12.44,0.159708,0.171797,-12.910353,183.050252,33.132553,-12.911674,1,1,182.593534,32.90765729,-12.9186651,FALSE,231.3079147,234.9354716,1,1.142576849,-8.946908895,2.355428032,-29.41186717,7.301772505
3.670699,182.660074,19.132874,3,0.326355,0.082275,-0.109253,-0.935303,0.43,-2.83,-12.13,0.72249,0.061802,-12.442063,183.343918,32.897654,-12.447238,1,1,182.98906,32.72499766,-12.47862797,FALSE,231.2245041,234.7806792,1,0.991823056,-8.941343108,2.356901808,-29.52472415,7.331502594
3.679608,183.130899,19.128232,3,0.325745,0.08252,-0.109436,-0.935486,0.97,-3.12,-12.38,0.197864,-0.094639,-12.802026,183.56902,32.735668,-12.798117,1,1,183.2722135,32.60514267,-12.77721487,FALSE,231.1942209,234.7040682,1,1.110918503,-8.937243391,2.356755535,-29.60436431,7.352499581
3.691447,183.232492,19.142157,3,0.324829,0.082825,-0.109558,-0.93573,0.45,-2.47,-12.34,0.985509,-0.258545,-12.551524,183.849042,32.513779,-12.554241,1,1,183.6350274,32.4301841,-12.56883904,FALSE,231.100678,234.5436209,1,1.044078007,-8.930238415,2.354664863,-29.71013087,7.380388834
3.700393,183.606455,19.132874,3,0.32373,0.08313,-0.109619,-0.936096,0.09,-3.21,-12.07,0.778249,0.576415,-12.452279,184.062483,32.345327,-12.453402,1,1,183.9081613,32.3002441,-12.4612215,FALSE,231.0357952,234.4296017,1,1.011439286,-8.922349125,2.356086695,-29.7899855,7.401460026
3.708981,184.272165,19.137516,3,0.32251,0.083496,-0.109619,-0.936462,0.74,-2.63,-12.26,0.667943,-0.297842,-12.539419,184.406176,32.285334,-12.538471,1,1,184.1895476,32.19790269,-12.53341968,FALSE,231.0515106,234.4069473,1,1.045598178,-8.916139177,2.357282887,-29.86658397,7.421699235
3.721158,184.36854,19.142157,3,0.321472,0.083862,-0.109619,-0.936829,0.47,-3.15,-12.07,0.541527,0.303511,-12.467695,184.786463,32.125201,-12.468475,1,1,184.5699007,32.03384578,-12.47273741,FALSE,231.0070062,234.30154,1,1.032798486,-8.908775319,2.357317403,-29.97511096,7.450404079
3.729952,184.553446,19.132874,3,0.320801,0.084229,-0.109558,-0.937012,0.81,-3.19,-12.13,0.276618,0.119988,-12.564959,184.994551,31.957667,-12.563896,1,1,184.836154,31.90819942,-12.55788375,FALSE,230.9487308,234.1971229,1,1.074234694,-8.905177935,2.359179528,-30.05343891,7.471142516
3.738653,185.316141,19.142157,3,0.320435,0.084656,-0.109558,-0.937134,0.58,-2.73,-12.07,0.720979,-0.078517,-12.367243,185.374013,31.926107,-12.36941,1,1,185.1234017,31.80974492,-12.38186898,FALSE,230.9822058,234.1947449,1,1.011658374,-8.900837889,2.359359948,-30.13090398,7.491670522
3.751142,185.316141,19.142157,3,0.32019,0.085083,-0.109497,-0.937134,1.01,-3.09,-12.1,0.19299,-0.066777,-12.527418,185.753399,31.756271,-12.525677,1,1,185.509607,31.64421372,-12.51625147,FALSE,230.9427857,234.0956431,1,1.075684584,-8.89513061,2.35845266,-30.24203091,7.521130902
3.760023,185.694345,19.142157,3,0.319885,0.085571,-0.109436,-0.937195,0.86,-2.84,-12.02,0.448525,-0.14879,-12.371822,186.016171,31.631094,-12.373517,1,1,185.7854382,31.52815309,-12.38290265,FALSE,230.9209775,234.0324351,1,1.030224102,-8.892281963,2.357495434,-30.32101591,7.54207207
3.768885,185.888193,19.151441,3,0.319641,0.08606,-0.109314,-0.937256,0.74,-3.17,-12.08,0.375404,0.178291,-12.503995,186.255393,31.488232,-12.502557,1,1,186.0557739,31.40922515,-12.49470478,FALSE,230.8869953,233.9564095,1,1.083147258,-8.888631133,2.357626153,-30.39980314,7.562964774
3.781324,186.64625,19.151441,3,0.319214,0.086609,-0.10907,-0.937378,0.58,-2.28,-11.92,0.991033,-0.375378,-12.103637,186.770355,31.433616,-12.108033,1,1,186.4552756,31.26461119,-12.13363976,FALSE,230.9173782,233.9361833,1,0.946167768,-8.880132578,2.356400371,-30.51031596,7.592283662
3.790125,186.549326,19.146799,3,0.318481,0.087158,-0.108826,-0.937622,1.73,-3.65,-11.94,-0.68427,-0.01667,-12.586127,186.976172,31.262459,-12.580859,1,1,186.7212477,31.14820049,-12.55141213,FALSE,230.8869609,233.8654361,1,1.124640763,-8.878782668,2.354675163,-30.58846407,7.61301475
3.798812,186.92811,19.146799,3,0.317566,0.08783,-0.108582,-0.937866,0.42,-2.2,-11.94,1.193207,-0.319806,-12.08527,187.232029,31.14486,-12.090731,1,1,186.9883324,31.03624793,-12.12103248,FALSE,230.8696352,233.8096675,1,0.954933299,-8.8765721,2.35321368,-30.66558445,7.633463465
3.811433,187.874887,19.146799,3,0.316711,0.088501,-0.108276,-0.938171,1.27,-3.32,-11.91,-0.110114,0.045237,-12.42858,187.828649,31.152208,-12.424857,1,1,187.4028224,30.90854118,-12.40498491,FALSE,230.9604483,233.8570367,1,1.081143235,-8.869737241,2.351481012,-30.77757254,7.663152441
3.820295,187.496073,19.146799,3,0.315674,0.089172,-0.108032,-0.938477,0.32,-2.19,-11.81,1.275646,-0.223147,-11.945609,187.998263,30.951291,-11.950891,1,1,187.6676781,30.78970805,-11.98085238,FALSE,230.9248454,233.7813982,1,0.911432609,-8.864572769,2.350692693,-30.85615327,7.683987772
3.83214,188.161508,19.151441,3,0.314575,0.089966,-0.107666,-0.938782,1.14,-3.23,-11.9,0.075194,0.08813,-12.382589,188.416064,30.849487,-12.377832,1,1,188.0377196,30.65413515,-12.35176772,FALSE,230.9529654,233.7642996,1,1.076621721,-8.856572419,2.349893055,-30.96110675,7.711826991
3.841029,188.156778,19.142157,3,0.313416,0.090698,-0.107361,-0.939148,0.94,-2.93,-11.86,0.410972,-0.002317,-12.245776,188.607083,30.664201,-12.247231,1,1,188.3024895,30.53658098,-12.2539077,FALSE,230.9220059,233.6945238,1,1.04315632,-8.854411654,2.350274451,-31.03982322,7.732716886
3.849633,189.201151,19.146799,3,0.312378,0.091492,-0.107056,-0.939453,1.6,-3.27,-11.88,-0.279305,-0.124235,-12.421499,189.059519,30.725423,-12.419578,1,1,188.594652,30.46341118,-12.40864137,FALSE,231.0304487,233.7789894,1,1.11453753,-8.853845223,2.349730024,-31.11600414,7.752936305
3.861852,188.730051,19.151441,3,0.311462,0.092285,-0.106689,-0.939758,0.68,-3.05,-11.82,0.573783,0.28697,-12.209272,189.329047,30.486156,-12.21159,1,1,188.9548658,30.29984158,-12.22456764,FALSE,230.9809445,233.676391,1,1.04680087,-8.85204611,2.350724253,-31.22417828,7.781653731
3.87045,189.108408,19.151441,3,0.310486,0.093079,-0.106384,-0.940002,1.11,-1.85,-11.78,0.919605,-0.893674,-11.907084,189.520335,30.317329,-11.91044,1,1,189.2099535,30.18950652,-11.93144138,FALSE,230.9604305,233.6204565,1,0.926455197,-8.845626035,2.348116033,-31.30026058,7.801854045
3.879301,189.964182,19.156082,3,0.30957,0.093872,-0.106079,-0.940247,0.7,-3.19,-11.78,0.506205,0.419871,-12.206616,189.929487,30.336893,-12.203352,1,1,189.4993672,30.10852224,-12.18550457,FALSE,231.0479545,233.6821834,1,1.042995423,-8.839316112,2.346019218,-31.37852529,7.82262794
3.891835,190.055887,19.151441,3,0.308777,0.094666,-0.105774,-0.940491,1.69,-2.52,-11.82,0.126151,-0.692925,-12.182895,190.349095,30.219784,-12.183121,1,1,189.8841931,29.96508378,-12.1830952,FALSE,231.0760261,233.6649795,1,1.051936641,-8.835353137,2.344307988,-31.48929244,7.852022221
3.900724,190.245096,19.151441,3,0.308167,0.095398,-0.105469,-0.940674,0.92,-3.3,-11.79,0.306973,0.402093,-12.26725,190.584,30.078123,-12.266323,1,1,190.1544844,29.86161337,-12.26079363,FALSE,231.0896324,233.6462549,1,1.093920146,-8.833428118,2.343015386,-31.56782134,7.87285503
3.909357,190.152841,19.156082,3,0.307678,0.09613,-0.105225,-0.940735,1.76,-2.03,-11.79,0.36764,-1.090618,-12.037354,190.705772,29.844297,-12.039877,1,1,190.3998529,29.74266151,-12.05449632,FALSE,231.0406,233.5603933,1,1.0098681,-8.830516151,2.340043367,-31.64406775,7.893069453
3.92188,190.342569,19.156082,3,0.307434,0.096802,-0.10498,-0.940796,1.29,-2.94,-11.77,0.24063,-0.077349,-12.197408,190.962567,29.5857,-12.195672,1,1,190.7514782,29.56929746,-12.18644381,FALSE,230.9644854,233.4312491,1,1.081809898,-8.826707468,2.332730142,-31.75462846,7.922328024
3.930493,191.478891,19.156082,3,0.307373,0.097473,-0.104858,-0.940796,1.22,-2.82,-11.69,0.357785,-0.11096,-12.081273,191.382067,29.648845,-12.082534,1,1,191.027562,29.4888769,-12.08934171,FALSE,231.0426863,233.4851096,1,1.043274006,-8.824130394,2.331919189,-31.83064179,7.942416337
3.939521,191.381906,19.151441,3,0.307434,0.098083,-0.104736,-0.940674,1.39,-2.84,-11.66,0.217797,-0.186185,-12.077705,191.649193,29.539758,-12.077759,1,1,191.297374,29.38431684,-12.07859777,FALSE,231.0557304,233.4667517,1,1.045759258,-8.821532217,2.330577877,-31.91029431,7.963462848
3.952143,191.008188,19.160724,3,0.307556,0.098755,-0.104614,-0.940613,1.5,-3.13,-11.61,-0.029374,-0.008896,-12.117696,191.81609,29.192961,-12.117256,1,1,191.6368184,29.19724648,-12.11469639,FALSE,230.9372407,233.2927664,1,1.076057163,-8.820343079,2.329346721,-32.02163219,7.992871632
3.961004,192.703897,19.142157,3,0.307922,0.099365,-0.104553,-0.94043,1.3,-2.19,-11.51,0.641503,-0.612067,-11.755005,192.358697,29.3868,-11.758997,1,1,191.9323344,29.13246795,-11.78260056,FALSE,231.0746209,233.411134,1,0.925102832,-8.817631042,2.326595544,-32.09977723,8.013499785
3.97268,192.518839,19.151441,3,0.308044,0.099915,-0.104553,-0.940308,1.58,-2.75,-11.57,0.135081,-0.343176,-11.991149,192.752309,29.298179,-11.988591,1,1,192.2831028,29.00778992,-11.97514914,FALSE,231.1216646,233.4218787,1,1.02415089,-8.813097344,2.321018835,-32.20270542,8.040632557
3.981388,193.277414,19.151441,3,0.308167,0.100525,-0.104492,-0.940247,1.28,-2.21,-11.63,0.702056,-0.591131,-11.871699,193.175242,29.373549,-11.872987,1,1,192.5694216,28.94272674,-11.8796357,FALSE,231.2498185,233.5312435,1,0.983377873,-8.80945245,2.316950863,-32.27943401,8.060826277
3.990012,192.995371,19.156082,3,0.308289,0.101074,-0.104492,-0.940125,2.24,-2.66,-11.53,-0.320134,-0.79617,-12.012403,193.370649,29.211694,-12.010867,1,1,192.8266924,28.84948419,-12.00221708,FALSE,231.280823,233.5355036,1,1.048365847,-8.807805602,2.310968821,-32.35539962,8.080781867
4.002357,192.897867,19.151441,3,0.308228,0.101562,-0.104492,-0.940063,2.54,-2.32,-11.44,-0.378598,-1.228782,-11.876613,193.579069,28.917226,-11.878092,1,1,193.1688297,28.68626441,-11.88624936,FALSE,231.2280257,233.4364068,1,1.00423865,-8.812118525,2.298469805,-32.4641586,8.109233627
4.010918,193.752909,19.156082,3,0.308289,0.102051,-0.104614,-0.940002,1.12,-2.85,-11.43,0.45543,0.044061,-11.824233,193.881898,28.875957,-11.824827,1,1,193.4295468,28.60258239,-11.8289909,FALSE,231.2868281,233.4717251,1,0.982266391,-8.811789646,2.293398606,-32.53959774,8.12888912
4.019924,194.41456,19.151441,3,0.308655,0.102539,-0.104858,-0.939819,1.24,-2.27,-11.56,0.730411,-0.505026,-11.812522,194.311723,28.94405,-11.812658,1,1,193.7200199,28.53475916,-11.81378549,FALSE,231.4139347,233.5799236,1,0.979508521,-8.806449804,2.291322881,-32.61893268,8.149534121
4.032616,194.040232,19.160724,3,0.309082,0.102966,-0.105164,-0.939575,1.43,-2.81,-11.55,0.287979,-0.197933,-11.967512,194.591123,28.704914,-11.965806,1,1,194.0793402,28.3824542,-11.95571808,FALSE,231.4073239,233.5312605,1,1.060176525,-8.799987101,2.286861903,-32.73066312,8.178587281
4.04143,194.41456,19.151441,3,0.309509,0.103333,-0.105469,-0.939392,2.35,-2.73,-11.4,-0.420361,-0.800979,-11.921316,194.786987,28.536749,-11.921806,1,1,194.3329708,28.28171683,-11.92395533,FALSE,231.4196287,233.5160599,1,1.051936878,-8.800570509,2.282459698,-32.80822878,8.198724282
4.050073,194.79365,19.151441,3,0.309998,0.10376,-0.105896,-0.939087,0.81,-2.79,-11.42,0.77537,0.164902,-11.757035,195.035324,28.437403,-11.758851,1,1,194.5868976,28.19043463,-11.76984115,FALSE,231.4553697,233.5270885,1,0.981573311,-8.799036337,2.279710891,-32.88428548,8.218439702
4.062554,194.890634,19.156082,3,0.31073,0.104065,-0.106384,-0.938782,1.83,-2.53,-11.41,0.126696,-0.665098,-11.810147,195.342944,28.242514,-11.809582,1,1,194.9356494,28.04091449,-11.80705473,FALSE,231.4477436,233.4794155,1,1.010906606,-8.793406994,2.276589418,-32.99407113,8.246873294
4.071243,195.075205,19.146799,3,0.311462,0.10437,-0.106934,-0.938416,1,-2.27,-11.31,0.908433,-0.363956,-11.53738,195.501944,28.045252,-11.54038,1,1,195.1740868,27.93285073,-11.55806948,FALSE,231.4293978,233.4324588,1,0.89173042,-8.788909876,2.272118693,-33.0704575,8.266635156
4.080224,196.022745,19.146799,3,0.312134,0.104614,-0.107544,-0.93811,1.31,-2.19,-11.33,0.725207,-0.630288,-11.574017,195.92011,28.120736,-11.573647,1,1,195.4519369,27.86166411,-11.5727935,FALSE,231.5384543,233.5228195,1,0.903842481,-8.781574016,2.26765404,-33.14935776,8.287021006
4.092824,195.459024,19.156082,3,0.312988,0.104919,-0.108154,-0.937744,1.47,-2.73,-11.24,0.282435,-0.306563,-11.652377,196.125521,27.818799,-11.651509,1,1,195.7862324,27.69673909,-11.64627135,FALSE,231.4827969,233.4243085,1,0.952763239,-8.775225871,2.261751879,-33.2599656,8.315556263
4.10163,196.786264,19.156082,3,0.313843,0.105225,-0.108887,-0.937317,1.48,-2.44,-11.26,0.455425,-0.55796,-11.593654,196.582456,27.962335,-11.594292,1,1,196.064532,27.63609907,-11.5976908,FALSE,231.6181085,233.5440246,1,0.931631872,-8.771977074,2.257945384,-33.33722593,8.33545649
4.11038,196.027964,19.156082,3,0.314697,0.10553,-0.109619,-0.936951,1.35,-2.75,-11.18,0.371428,-0.241743,-11.583673,196.648986,27.664778,-11.58379,1,1,196.2931311,27.51927651,-11.58474845,FALSE,231.5718373,233.4679519,1,0.932756309,-8.768359592,2.254446684,-33.41396491,8.355198205
4.122781,196.596964,19.156082,3,0.315613,0.105835,-0.110413,-0.936462,0.76,-2.96,-11.19,0.725936,0.264438,-11.574024,196.974465,27.503466,-11.574131,1,1,196.6318172,27.37357278,-11.57484678,FALSE,231.5688017,233.4281934,1,0.937452888,-8.761555386,2.254587404,-33.52265914,8.383156471
4.131555,196.596964,19.156082,3,0.316528,0.10614,-0.111328,-0.936035,1.99,-3.04,-11.22,-0.255814,-0.455174,-11.782089,197.09395,27.258334,-11.779797,1,1,196.8588809,27.25649644,-11.76618936,FALSE,231.5221756,233.3524163,1,1.048036103,-8.759492961,2.253750645,-33.59952398,8.40293455
4.143534,197.25773,19.151441,3,0.317566,0.106384,-0.112244,-0.935547,1.02,-2.83,-11.16,0.61185,-0.032224,-11.54208,197.472337,27.178637,-11.544699,1,1,197.1879371,27.11990517,-11.55927369,FALSE,231.5329316,233.3295618,1,0.946644347,-8.757360484,2.250831375,-33.70444118,8.429914744
4.152402,198.200724,19.142157,3,0.318665,0.106689,-0.113281,-0.934998,1.81,-3,-11.25,-0.059625,-0.426903,-11.775085,197.947342,27.352895,-11.772546,1,1,197.4637316,27.06100519,-11.75852792,FALSE,231.6718078,233.4540768,1,1.05906886,-8.754911918,2.248795606,-33.78209059,8.44986609
4.161283,198.016123,19.151441,3,0.319885,0.106995,-0.114319,-0.934448,1.33,-2.69,-11.12,0.467047,-0.372885,-11.50228,198.21188,27.275806,-11.505259,1,1,197.7180268,26.97441704,-11.52193937,FALSE,231.725191,233.4864919,1,0.936460918,-8.753102761,2.245244147,-33.85983493,8.469821874
4.17347,197.44758,19.151441,3,0.321045,0.1073,-0.115417,-0.933838,1.7,-3.42,-11.2,-0.201715,-0.080508,-11.831255,198.297762,26.861916,-11.827662,1,1,198.0181196,26.79940107,-11.80752428,FALSE,231.6205418,233.3399814,1,1.106999191,-8.75148596,2.242481397,-33.96649914,8.497167829
4.18206,198.210703,19.160724,3,0.322144,0.107605,-0.116516,-0.933289,1.01,-3,-11,0.529561,0.033257,-11.434079,198.500077,26.730297,-11.438416,1,1,198.24617,26.69610293,-11.46272977,FALSE,231.6105572,233.3056144,1,0.923020882,-8.750077861,2.242278454,-34.04166836,8.516429873
4.190862,198.210703,19.160724,3,0.323181,0.10791,-0.117615,-0.932739,1.58,-3.69,-10.94,-0.309966,0.186621,-11.64748,198.642108,26.522596,-11.645176,1,1,198.4682271,26.57969005,-11.63330594,FALSE,231.5651206,233.2329874,1,1.02722395,-8.749111424,2.243246137,-34.11868229,8.536170667
4.203423,198.49235,19.156082,3,0.324158,0.108276,-0.118774,-0.932251,1.23,-2.93,-11.03,0.437921,-0.211835,-11.468307,198.926217,26.325693,-11.470256,1,1,198.7868077,26.41582119,-11.48096574,FALSE,231.5085387,233.1386438,1,0.953113734,-8.748307802,2.24308778,-34.22857483,8.564347087
4.212266,198.589395,19.160724,3,0.325012,0.108643,-0.119873,-0.931763,1.55,-3.37,-10.87,-0.091519,-0.078628,-11.484841,199.050101,26.092714,-11.48468,1,1,198.9999628,26.28940388,-11.48454369,FALSE,231.4333782,233.0347593,1,0.964362737,-8.746776186,2.241803498,-34.30592935,8.584177034
4.221158,199.53306,19.151441,3,0.325928,0.109009,-0.121033,-0.931274,1.06,-2.75,-10.9,0.666525,-0.268746,-11.268533,199.43673,26.172205,-11.270915,1,1,199.2471674,26.20472519,-11.28510536,FALSE,231.4880001,233.070338,1,0.855006146,-8.744219709,2.240259073,-34.38369431,8.604104284
4.233499,199.060953,19.156082,3,0.326782,0.109314,-0.122192,-0.930786,1.54,-3.52,-11.01,-0.101912,-0.032497,-11.660665,199.637946,25.892654,-11.65637,1,1,199.5459698,26.0353131,-11.63185203,FALSE,231.4028217,232.9475329,1,1.069776133,-8.740735765,2.238400253,-34.49158523,8.631739851
4.242088,200.009348,19.156082,3,0.327637,0.10968,-0.123291,-0.930298,1.5,-3.25,-10.88,0.064009,-0.215186,-11.4515,199.979534,25.940961,-11.453758,1,1,199.7803303,25.94954005,-11.46533663,FALSE,231.443442,232.9693415,1,0.978435968,-8.740898539,2.237336579,-34.56666011,8.650960903
4.251089,200.291605,19.151441,3,0.328552,0.109985,-0.124451,-0.929749,1.44,-3.1,-10.94,0.228836,-0.32573,-11.454623,200.312763,25.95441,-11.454614,1,1,200.0263548,25.86254806,-11.45544495,FALSE,231.4934341,233.0004176,1,0.979143058,-8.73958059,2.234902186,-34.64533101,8.671088214
4.263633,200.773203,19.165366,3,0.329346,0.110291,-0.125549,-0.929321,1.2,-3.19,-10.84,0.343616,-0.112209,-11.357437,200.785645,25.979792,-11.358508,1,1,200.3696699,25.74399226,-11.36495617,FALSE,231.5703399,233.0518068,1,0.933838499,-8.735990171,2.232155433,-34.75493779,8.699105599
4.272519,200.670877,19.151441,3,0.330261,0.110596,-0.126648,-0.928772,1.63,-3.67,-10.79,-0.263782,-0.044408,-11.509895,200.979041,25.831445,-11.508226,1,1,200.6013834,25.6472029,-11.49877528,FALSE,231.5852004,233.0460593,1,1.021873791,-8.735635469,2.231459584,-34.83256422,8.71893744
4.284446,200.578562,19.156082,3,0.331055,0.110901,-0.127686,-0.928345,0.88,-3.46,-10.8,0.442605,0.255748,-11.36332,201.157138,25.54271,-11.364916,1,1,200.8910762,25.49059264,-11.37371215,FALSE,231.5252464,232.9531838,1,0.957860709,-8.734569058,2.23271991,-34.93674778,8.745559575
4.293344,201.428995,19.151441,3,0.33197,0.111145,-0.128784,-0.927856,1.45,-3.69,-10.74,-0.128832,0.045798,-11.447643,201.471691,25.551443,-11.446731,1,1,201.132027,25.40789016,-11.44197101,FALSE,231.5821737,232.992936,1,1.006191509,-8.733173082,2.234061488,-35.01446177,8.765432285
4.302051,201.623636,19.160724,3,0.333008,0.111389,-0.129822,-0.927246,0.96,-3.01,-10.93,0.707908,-0.200594,-11.353623,201.742593,25.511378,-11.354649,1,1,201.3654674,25.32439169,-11.36040107,FALSE,231.6302543,233.0238225,1,0.962213461,-8.730652075,2.233387583,-35.09049053,8.784881325
4.31421,202.285288,19.156082,3,0.334106,0.111694,-0.130859,-0.926697,1.42,-3.47,-10.72,0.041738,-0.144265,-11.35575,202.226696,25.575029,-11.355738,1,1,201.7013359,25.22310838,-11.35610682,FALSE,231.7418704,233.1147787,1,0.967269955,-8.726094602,2.231291013,-35.19661882,8.812024338
4.323025,202.095865,19.156082,3,0.334961,0.111938,-0.131897,-0.926208,0.99,-3.57,-10.62,0.287784,0.202715,-11.242122,202.409522,25.423101,-11.243374,1,1,201.9313287,25.13342672,-11.25086693,FALSE,231.7738381,233.1286322,1,0.907874623,-8.724642233,2.231548631,-35.27353295,8.831694304
4.331675,202.19346,19.160724,3,0.335693,0.112305,-0.132935,-0.925781,1.33,-3.57,-10.7,0.070749,-0.053728,-11.357665,202.55958,25.241678,-11.356406,1,1,202.1504223,25.03872998,-11.34947144,FALSE,231.7843858,233.1202341,1,0.977355263,-8.723091578,2.232193,-35.34899439,8.850999987
4.35207,202.285288,19.156082,3,0.337036,0.113037,-0.134888,-0.924927,0.94,-3.19,-10.6,0.586168,-0.102451,-11.093519,202.982952,24.913691,-11.096416,1,1,202.6408033,24.78416483,-11.11315572,FALSE,231.7169803,233.0028155,1,0.844409575,-8.716392667,2.230600365,-35.52683354,8.896509322
4.36136,203.136393,19.151441,3,0.337524,0.113403,-0.135803,-0.9245,1.24,-3.72,-10.66,0.080062,0.061915,-11.357823,203.264323,24.885465,-11.354942,1,1,202.883301,24.69737774,-11.33905209,FALSE,231.7702638,233.0393517,1,0.997759811,-8.713298029,2.230412075,-35.60779445,8.917230725
4.371085,203.321085,19.142157,3,0.338074,0.113831,-0.136658,-0.924133,1.02,-3.28,-10.57,0.492724,-0.11793,-11.102544,203.524307,24.803436,-11.105325,1,1,203.1324297,24.59966673,-11.12068893,FALSE,231.8069419,233.0573577,1,0.86207807,-8.710512857,2.230139702,-35.69251773,8.938920158
4.385127,203.039316,19.146799,3,0.338684,0.114258,-0.137512,-0.923767,1.12,-3.43,-10.45,0.307001,-0.068643,-11.05093,203.713294,24.439084,-11.051529,1,1,203.455621,24.41573589,-11.05628192,FALSE,231.7318913,232.9476812,1,0.83211255,-8.704897988,2.228829773,-35.81479133,8.970226583
4.393963,203.233988,19.156082,3,0.339355,0.114685,-0.138306,-0.92334,1.02,-3.62,-10.48,0.291292,0.115247,-11.130007,203.772529,24.117325,-11.129143,1,1,203.6498864,24.29036558,-11.12435081,FALSE,231.6559679,232.8485445,1,0.886642628,-8.702254729,2.22903567,-35.89169613,8.989921432
4.402544,204.084635,19.151441,3,0.340027,0.115173,-0.13916,-0.922913,1.2,-4.04,-10.52,-0.064823,0.279587,-11.329165,204.080061,24.153166,-11.32696,1,1,203.8687848,24.20899844,-11.31345163,FALSE,231.7000588,232.8777368,1,1.021036409,-8.701283064,2.230729705,-35.96636601,9.009056055
4.41472,203.612863,19.156082,3,0.340759,0.115601,-0.139954,-0.922485,0.98,-3.77,-10.58,0.291143,0.200986,-11.268776,204.222224,23.830491,-11.269417,1,1,204.1362114,24.03645127,-11.27220353,FALSE,231.5982251,232.7447416,1,1.007331797,-8.699905228,2.233655433,-36.07230444,9.036235232
4.42333,204.269388,19.142157,3,0.341614,0.116028,-0.140808,-0.921936,0.94,-3.89,-10.4,0.207118,0.32893,-11.136596,204.442239,23.75448,-11.138059,1,1,204.3392262,23.93487676,-11.14699983,FALSE,231.5847817,232.7132271,1,0.928911571,-8.697760214,2.235936722,-36.14720139,9.055476826
4.432294,204.372232,19.156082,3,0.34259,0.116455,-0.141602,-0.921448,1,-3.79,-10.59,0.294152,0.165852,-11.287114,204.632182,23.625694,-11.285472,1,1,204.5446621,23.82353101,-11.27636443,FALSE,231.5537208,232.6625873,1,1.028336066,-8.695513522,2.238154335,-36.22515805,9.075529702
4.444771,205.032999,19.151441,3,0.343384,0.116943,-0.142273,-0.920959,0.81,-3.63,-10.52,0.521952,0.175778,-11.144506,205.055376,23.639379,-11.146059,1,1,204.8502745,23.69510492,-11.15462219,FALSE,231.5875806,232.6741625,1,0.953209618,-8.690422257,2.240285593,-36.33362021,9.10346845
4.453613,205.791941,19.151441,3,0.344116,0.117432,-0.143005,-0.920532,1.26,-4.31,-10.44,-0.228097,0.367802,-11.356535,205.501836,23.845032,-11.354216,1,1,205.0945031,23.64239957,-11.34104422,FALSE,231.7206017,232.7981298,1,1.0902097,-8.689123124,2.242688761,-36.41045518,9.12328768
4.465327,205.032999,19.151441,3,0.344666,0.11792,-0.143555,-0.920166,1.33,-4.08,-10.44,-0.12815,0.144435,-11.285915,205.628976,23.527999,-11.286668,1,1,205.3544052,23.4882049,-11.29014452,FALSE,231.6562226,232.7075678,1,1.067849093,-8.691209663,2.245688933,-36.51225178,9.149576108
4.474189,205.700083,19.156082,3,0.345215,0.118469,-0.144104,-0.9198,0.97,-4.02,-10.33,0.151789,0.352332,-11.120393,205.860008,23.459004,-11.122225,1,1,205.5687391,23.3969579,-11.13341636,FALSE,231.6794102,232.7154738,1,0.962239374,-8.691104919,2.247890107,-36.58927282,9.169487156
4.482769,206.07435,19.146799,3,0.345764,0.119019,-0.144592,-0.919434,1.29,-3.69,-10.37,0.142349,-0.115055,-11.080765,206.129834,23.448583,-11.081222,1,1,205.7836749,23.32055854,-11.08480442,FALSE,231.7347346,232.7581241,1,0.9329773,-8.689843067,2.248908026,-36.66383709,9.18877842
4.494942,205.413004,19.151441,3,0.346252,0.119568,-0.14502,-0.919128,1.24,-3.83,-10.36,0.105283,0.014413,-11.114183,206.183509,23.042311,-11.113819,1,1,206.0353054,23.14429052,-11.11192908,FALSE,231.6196178,232.6141827,1,0.967397581,-8.688335854,2.248295468,-36.76960937,9.216150649
4.503541,206.839151,19.156082,3,0.34668,0.120117,-0.145325,-0.918823,1.29,-3.76,-10.32,0.111081,-0.066225,-11.058341,206.592708,23.217105,-11.058953,1,1,206.2628969,23.08675049,-11.06245228,FALSE,231.727947,232.7132277,1,0.935278567,-8.687405597,2.248072702,-36.84431637,9.235482784
4.512446,206.6486,19.156082,3,0.347168,0.120667,-0.14563,-0.918518,1.07,-4.03,-10.24,0.095928,0.285831,-11.052234,206.816987,23.140481,-11.052308,1,1,206.476667,22.99951797,-11.05301795,FALSE,231.7613422,232.7326646,1,0.935287962,-8.68648389,2.249050498,-36.92167362,9.255506225
4.524952,207.022867,19.146799,3,0.347778,0.121216,-0.145874,-0.918213,1.16,-3.82,-10.22,0.161952,0.075646,-10.970646,207.171883,23.081445,-10.971546,1,1,206.7758997,22.87776109,-10.97696558,FALSE,231.8096824,232.761756,1,0.887434728,-8.684871366,2.251310814,-37.0302967,9.283646985
4.533788,207.022867,19.146799,3,0.348389,0.121765,-0.146057,-0.917847,1.07,-3.59,-10.31,0.407053,-0.046712,-10.961793,207.327284,22.922281,-10.961901,1,1,206.979786,22.78362226,-10.96295704,FALSE,231.8202832,232.7576601,1,0.8840422,-8.682357502,2.251438644,-37.10702512,9.303540132
4.542552,206.839151,19.156082,3,0.348999,0.122314,-0.146179,-0.917542,1.56,-4.2,-10.2,-0.342811,0.077276,-11.135097,207.370664,22.630373,-11.133188,1,1,207.162816,22.66619101,-11.12189041,FALSE,231.7630594,232.6823285,1,1.01635606,-8.682075994,2.251572576,-37.18311607,9.323272327
4.555072,207.690103,19.151441,3,0.349548,0.122864,-0.146301,-0.917236,1.14,-3.62,-10.17,0.314239,-0.047471,-10.850437,207.756168,22.617221,-10.853553,1,1,207.4574654,22.54265874,-10.87126293,FALSE,231.806002,232.7064907,1,0.831224119,-8.682254854,2.251759155,-37.29181678,9.351463184
4.563648,207.884867,19.160724,3,0.349976,0.123474,-0.146362,-0.916992,1.29,-3.55,-10.26,0.289493,-0.213479,-10.927266,207.991296,22.577861,-10.926454,1,1,207.6616109,22.46411968,-10.92296944,FALSE,231.8506685,232.7393591,1,0.877828837,-8.679666051,2.250640201,-37.36626469,9.370769472
