time,altitude,Temperature (deg C),Mode,IMU Quat W,IMU Quat X,IMU Quat Y,IMU Quat Z,IMU Local Acceleration X,IMU Local Acceleration Y,IMU Local Acceleration Z,accel_x,accel_y,accel,State Estimation y,State Estimation v,State Estimation a,Commanded servo deployment,deployment,filtered_altitude,filtered_velocity,filtered_accel,saturated,predicted_apogee,predicted_apogee_no_brake,cd_total,cd_calculated,integrated_vx,integrated_vy,integrated_x,integrated_y
0,-0.151543,18.710465,2,0.302856,0.015198,-0.016785,-0.952759,0.27,-2.14,67.19,-4.08313,3.120655,67.027885,0.137417,0.776821,66.296693,0,0,-0.149175054,0.526739098,65.84271611,FALSE,-0.135033866,-0.135033866,0.4,,0,0,0,0
0.012487,-1.175392,18.705823,2,0.302856,0.015198,-0.016785,-0.952759,-1.92,0.05,74.89,-1.334498,2.774055,74.85135,-0.608725,0.777801,74.75708,0,0,-0.233455913,1.360463266,74.16332289,FALSE,-0.139129555,-0.139129555,0.4,,-0.03382496,0.036803622,-0.000211186,0.000229783
0.021372,-0.709785,18.710465,2,0.302856,0.015198,-0.016724,-0.952759,-1.04,-4.62,73.7,-4.696027,6.040616,73.454557,-0.657646,1.343995,73.468911,0,0,-0.260567545,2.017400265,73.50893215,FALSE,-0.053174709,-0.053174709,0.4,,-0.060615568,0.075962798,-0.000630738,0.000730748
0.030247,-0.989662,18.696539,2,0.302551,0.01532,-0.016296,-0.952881,7.53,3.44,79.89,-7.286711,-5.413457,79.8032,-0.834726,1.800251,79.733398,0,0,-0.299705998,2.671277677,79.3203031,FALSE,0.063856308,0.063856308,0.4,,-0.113788968,0.078745816,-0.001404658,0.001417268
0.042708,-0.244667,18.705823,2,0.303284,0.016296,-0.015991,-0.952637,-3.71,0.14,82.4,-0.251207,3.727555,82.398947,-0.463436,3.251169,82.369573,0,0,-0.259071768,3.662644942,82.16275308,FALSE,0.424193764,0.424193764,0.4,,-0.160753966,0.068241803,-0.003115198,0.002333074
0.051279,-0.896019,18.701181,2,0.307007,0.017334,-0.015442,-0.951416,-9.82,1.49,81.87,5.355671,6.067806,82.072188,-0.683858,3.58342,82.075465,0,0,-0.272250491,4.362982548,82.07913616,FALSE,0.697010562,0.697010562,0.4,,-0.138878785,0.110219823,-0.004399274,0.003097871
0.060147,-0.337272,18.710465,2,0.311279,0.0177,-0.01593,-0.950012,1.14,0.46,84.22,-4.314165,0.575601,84.116442,-0.448285,4.588375,84.093951,0,0,-0.237517997,5.0915571,83.96013966,FALSE,1.082016158,1.082016158,0.4,0,-0.134260748,0.13967669,-0.005610375,0.004205913
0.07269,-0.709785,18.710465,2,0.316284,0.017883,-0.016846,-0.948364,-0.75,2.59,83.78,-1.582851,0.109021,83.808364,-0.535892,5.452733,83.811511,0,0,-0.201869915,6.140348542,83.82000824,FALSE,1.716099133,1.716099133,0.4,0,-0.171243883,0.143970297,-0.007526347,0.005984805
0.081579,-0.896019,18.701181,2,0.322815,0.017822,-0.017151,-0.946167,1.28,-3.7,85.66,-7.107983,3.938824,85.363535,-0.693377,5.901565,85.346432,0,0,-0.190145031,6.880155198,85.24511544,FALSE,2.216635329,2.216635329,0.4,0,-0.209870295,0.161960944,-0.009220209,0.007344516
0.09046,-0.244667,18.705823,2,0.330872,0.017883,-0.017212,-0.943359,-0.38,5.66,84.03,0.03408,-2.44577,84.185742,-0.377918,6.991595,84.198533,0,0,-0.132701396,7.635397825,84.26701725,FALSE,2.829797673,2.829797673,0.4,0,-0.241281961,0.16859085,-0.011223551,0.008812331
0.103041,-0.524559,18.701181,2,0.343262,0.018066,-0.01709,-0.938904,-2.93,3.8,81.94,0.943392,0.60151,82.072751,-0.368593,7.918325,82.096176,0,0,-0.058131162,8.688284463,82.24109536,FALSE,3.774342166,3.774342166,0.4,0,-0.235133174,0.156989532,-0.01422044,0.010860395
0.111628,-0.524559,18.701181,2,0.356262,0.01825,-0.016724,-0.934082,1.03,0.64,86.41,-4.318024,0.412665,86.309584,-0.388049,8.524529,86.263153,0,0,-0.010407505,9.391141234,85.99744907,FALSE,4.464297575,4.464297575,0.4,0,-0.249622156,0.161343893,-0.016301737,0.012227159
0.120624,-0.431434,18.705823,2,0.367493,0.018433,-0.016785,-0.929688,-1.09,3.36,85.14,-0.879683,-0.201345,85.208467,-0.333021,9.258417,85.220089,0,0,0.050406955,10.15810322,85.26899779,FALSE,5.281818868,5.281818868,0.4,0,-0.273001442,0.16229441,-0.018652498,0.013682884
0.133269,-0.151543,18.710465,2,0.378479,0.017944,-0.017273,-0.925293,-0.47,-0.96,82.69,-4.163813,2.533947,82.553142,-0.103982,10.433696,82.582531,0,0,0.168144669,11.22922548,82.76150277,FALSE,6.553481172,6.553481172,0.4,0,-0.304888946,0.177042286,-0.02230621,0.015828341
0.142181,0.219444,18.701181,2,0.390869,0.017578,-0.017517,-0.920105,-0.97,0.6,83.92,-2.759594,1.834003,83.862318,0.180411,11.462593,83.848215,0,0,0.268876044,11.96683129,83.77786333,FALSE,7.514280737,7.514280737,0.4,0,-0.335739647,0.196505871,-0.025160851,0.017492871
0.151052,0.312569,18.705823,2,0.404602,0.017212,-0.017517,-0.914185,-6.69,0.98,82.04,1.475909,5.779327,82.101783,0.361838,12.292514,82.121028,0,0,0.375075532,12.70789501,82.23037208,FALSE,8.538007463,8.538007463,0.4,0,-0.341433432,0.230274797,-0.028164452,0.019385857
0.16335,1.14875,18.701181,2,0.418762,0.017212,-0.017273,-0.907776,-3.87,8.37,82.48,5.098489,-1.087487,82.830002,0.975995,13.881619,82.82219,0,0,0.567188856,13.72973141,82.78399833,FALSE,10.08255,10.08255,0.4,0,-0.301007459,0.259124921,-0.032114821,0.022395176
0.171934,0.870873,18.705823,2,0.431641,0.01709,-0.017273,-0.901733,12.4,-10.56,77.61,-19.536335,-1.768129,76.836325,1.036917,14.450931,76.902288,0,0,0.696753429,14.43944078,77.29263119,FALSE,11.21057177,11.21057177,0.4,0,-0.362974694,0.246868617,-0.034964633,0.0245669
0.180823,1.428169,18.705823,2,0.443848,0.016968,-0.0177,-0.895752,3.72,-1.67,81.56,-7.33963,-0.591537,81.329192,1.394923,15.466942,81.280409,0,0,0.856154374,15.14000052,81.01950659,FALSE,12.40276948,12.40276948,0.4,0,-0.48242492,0.236381081,-0.038722011,0.026714703
0.193477,1.14875,18.701181,2,0.45343,0.016663,-0.018066,-0.89093,-1.58,5.79,77.4,2.037705,-0.805323,77.601401,1.453959,16.272257,77.641943,0,0,1.058550386,16.16381602,77.86363846,FALSE,14.19825977,14.19825977,0.4,0,-0.5159702,0.227543148,-0.045038857,0.029649952
0.202334,1.80024,18.705823,2,0.455994,0.016724,-0.018372,-0.889648,-1.92,7.77,86.18,3.411643,-1.47219,86.471079,1.802824,17.339714,86.373784,0,0,1.23179226,16.87151943,85.81071516,FALSE,15.53038544,15.53038544,0.4,0,-0.491837762,0.217457182,-0.049501935,0.031620636
0.211198,1.706581,18.701181,2,0.450623,0.018494,-0.019714,-0.892334,-10.34,6.24,81.35,7.018081,6.127794,81.712226,1.904016,17.990175,81.763595,0,0,1.399093142,17.63611762,82.02666257,FALSE,17.00227254,17.00227254,0.4,0,-0.445613226,0.238090819,-0.053656718,0.033639624
0.223588,2.542854,18.696539,2,0.438416,0.019226,-0.020386,-0.898315,-13.78,-11.46,79.7,-4.723797,19.484625,79.191588,2.503804,19.434631,79.219931,0,0,1.664619759,18.67048431,79.40909527,FALSE,19.11874528,19.11874528,0.4,0,-0.431400136,0.396759755,-0.059089815,0.037572524
0.232187,2.264443,18.701181,2,0.428894,0.018555,-0.02002,-0.902954,2.41,7.61,88.38,-0.112332,-4.884358,88.605183,2.535141,19.990686,88.50176,0,0,1.847261878,19.36972467,87.89965808,FALSE,20.60819503,20.60819503,0.4,0,-0.452193073,0.459533602,-0.062888824,0.041254157
0.244056,2.171288,18.696539,2,0.415955,0.018677,-0.019226,-0.908997,2.83,-8.45,82,-12.328433,4.969925,81.404703,2.566811,20.68319,81.482911,0,0,2.087145029,20.40937532,81.90299671,FALSE,22.87303748,22.87303748,0.4,0,-0.526022793,0.4600414,-0.068694046,0.046711375
0.252645,2.636009,18.691897,2,0.401428,0.019226,-0.018616,-0.915466,-3.39,4.71,83.76,1.552598,0.86784,83.941931,2.787741,21.46308,83.914833,0,0,2.281457952,21.12362275,83.78550373,FALSE,24.5147415,24.5147415,0.4,0,-0.572299616,0.485111682,-0.073410792,0.050770335
0.261354,3.287605,18.705823,2,0.384521,0.020142,-0.019409,-0.922668,-2.22,-0.22,83.06,-2.921385,3.42008,82.968117,3.266883,22.559266,82.978549,0,0,2.503655442,21.87416323,83.03082701,FALSE,26.30670375,26.30670375,0.4,0,-0.578259999,0.503783429,-0.078420904,0.055076479
0.27388,3.101799,18.705823,2,0.368347,0.020935,-0.020081,-0.92926,-2.23,2.88,83.43,-0.888025,1.258964,83.495262,3.460237,23.487835,83.489568,0,0,2.797731083,22.92344265,83.4596305,FALSE,28.8783128,28.8783128,0.4,0,-0.602118334,0.533088282,-0.085813613,0.061570406
0.282751,3.472893,18.696539,2,0.352783,0.022278,-0.020508,-0.935242,-1.85,0.55,83.14,-2.917185,2.692144,83.067607,3.679222,24.235624,83.072257,0,0,3.024251697,23.67687474,83.09768309,FALSE,30.79917786,30.79917786,0.4,0,-0.618996343,0.550613421,-0.091229868,0.066377165
0.291593,3.658699,18.696539,2,0.337769,0.024536,-0.020691,-0.940674,-1.01,2.65,82.43,-2.49764,0.442307,82.439757,3.884856,24.948844,82.446727,0,0,3.25465597,24.42350532,82.49023317,FALSE,32.75667343,32.75667343,0.4,0,-0.642935284,0.564470829,-0.096808867,0.071306952
0.303924,4.309837,18.701181,2,0.322815,0.027527,-0.020691,-0.945862,-0.59,1.87,81.91,-3.753492,0.632492,81.845006,4.445371,26.265931,81.851636,0,0,3.593658801,25.46310183,81.89450792,FALSE,35.57911889,35.57911889,0.4,0,-0.681476639,0.571097502,-0.104974529,0.078308299
0.312742,4.403008,18.696539,2,0.307861,0.031372,-0.020325,-0.950684,-1.6,1,81.7,-4.018254,1.708162,81.605059,4.655538,26.949076,81.607776,0,0,3.845830522,26.20336191,81.62726556,FALSE,37.6547695,37.6547695,0.4,0,-0.715742267,0.581417446,-0.111134867,0.083389737
0.321592,4.867836,18.691897,2,0.292908,0.036011,-0.019775,-0.955261,-0.43,2.03,81.24,-5.042184,-0.083324,81.109882,5.020083,27.828837,81.115369,0,0,4.113897319,26.95076783,81.14957573,FALSE,39.80981126,39.80981126,0.4,0,-0.755834705,0.588607354,-0.117646595,0.088567097
0.334207,5.798577,18.701181,2,0.278076,0.041382,-0.01886,-0.959473,-0.5,1.11,80.74,-6.246879,0.393946,80.506214,5.829515,29.408062,80.512926,0,0,4.516568087,28.01914007,80.55557281,FALSE,42.98877293,42.98877293,0.4,0,-0.82704047,0.590566602,-0.12763058,0.096004737
0.343051,6.07711,18.696539,2,0.263306,0.047424,-0.017639,-0.963379,0.17,2.31,80.61,-7.092138,-1.348264,80.319488,6.23671,30.334527,80.32162,0,0,4.822411664,28.77661981,80.33760047,FALSE,45.3185177,45.3185177,0.4,0,-0.886025603,0.586346608,-0.135205759,0.101209047
0.351897,5.799095,18.710465,2,0.248596,0.05426,-0.016113,-0.96698,-0.14,1.14,79.83,-8.348707,-0.597013,79.398329,6.254815,30.700142,79.408503,0,0,5.110185739,29.51196547,79.47039002,FALSE,47.61446255,47.61446255,0.4,0,-0.95432046,0.577742648,-0.143345609,0.106357814
0.364236,6.542519,18.701181,2,0.233948,0.061707,-0.014221,-0.970215,1.09,2.4,80.31,-10.027702,-2.735882,79.678185,6.806684,31.892376,79.675213,0,0,5.525003276,30.53177516,79.66224296,FALSE,50.88403781,50.88403781,0.4,0,-1.067693716,0.557180352,-0.155820426,0.113359721
0.372837,7.473427,18.701181,2,0.219238,0.069824,-0.012024,-0.973083,1.55,1.82,79.66,-11.85727,-2.883183,78.756068,7.471269,33.144654,78.766197,0,0,5.861121848,31.27916214,78.82558986,FALSE,53.36300382,53.36300382,0.4,0,-1.161810038,0.533015563,-0.165408407,0.118048109
0.381682,6.82209,18.705823,2,0.204651,0.078491,-0.009583,-0.975647,2.3,2.46,79.51,-13.589997,-4.243206,78.29748,7.39191,33.347222,78.302645,0,0,6.169407474,32.00189019,78.33799666,FALSE,55.78358131,55.78358131,0.4,0,-1.274350576,0.501499108,-0.176182327,0.12262325
0.394366,7.938912,18.705823,2,0.190002,0.087708,-0.006836,-0.977844,2.86,2.12,78.51,-15.495048,-4.600066,76.910627,8.138622,34.717236,76.925967,0,0,6.638831065,33.04790501,77.02013499,FALSE,59.3789433,59.3789433,0.4,0,-1.458807931,0.445415077,-0.193516018,0.12862858
0.403209,8.681969,18.696539,2,0.175354,0.097473,-0.003784,-0.979675,3.4,2.41,78.58,-17.412055,-5.536129,76.539991,8.76459,35.869858,76.544244,0,0,7.00773112,33.79888722,76.57682772,FALSE,62.04145038,62.04145038,0.4,0,-1.604306687,0.400597891,-0.207059579,0.132369226
0.412036,8.869423,18.715107,2,0.160706,0.107605,-0.000488,-0.98114,4.35,2.61,78.2,-19.726438,-6.477282,75.563977,9.144848,36.617715,75.57478,0,0,7.374783148,34.53775293,75.64168304,FALSE,64.70467949,64.70467949,0.4,0,-1.768217426,0.347576701,-0.221944215,0.135671295
0.424493,10.450508,18.701181,2,0.145935,0.118042,0.00293,-0.982239,5.57,3.09,78.1,-22.333785,-7.691785,74.714463,10.364766,38.498084,74.723944,0,0,7.922841702,35.59076934,74.78559947,FALSE,68.59186073,68.59186073,0.4,0,-2.030189525,0.259324667,-0.245602592,0.13945138
0.433109,11.38073,18.701181,2,0.131287,0.128784,0.006592,-0.98291,6.81,3.79,77.43,-24.83313,-9.026529,73.198058,11.289602,40.011056,73.214873,0,0,8.365749424,36.36866444,73.3198544,FALSE,71.55088933,71.55088933,0.4,0,-2.233384595,0.187302171,-0.26397007,0.141375448
0.442103,11.660942,18.705823,2,0.11676,0.139709,0.010376,-0.983215,7.8,3.47,77.49,-27.576608,-9.251909,72.328924,11.867299,40.943252,72.338686,0,0,8.821595179,37.15591029,72.40494832,FALSE,74.59504494,74.59504494,0.4,0,-2.469071187,0.105104035,-0.285117013,0.142690399
0.454728,12.032341,18.705823,2,0.102173,0.150635,0.014282,-0.983215,8.65,4.36,76.07,-29.493798,-10.446279,70.011054,12.485628,41.947659,70.036704,0,0,9.413432341,38.19049501,70.1947139,FALSE,78.65133253,78.65133253,0.4,0,-2.829328125,-0.019240777,-0.318563159,0.143232411
0.463581,13.334679,18.696539,2,0.087036,0.161377,0.018433,-0.982849,9.47,4.11,76.14,-32.013418,-10.506026,69.0546,13.353478,43.303724,69.065422,0,0,9.907436995,38.97344799,69.1420697,FALSE,81.81375414,81.81375414,0.4,0,-3.101589816,-0.111986155,-0.344816367,0.142651535
0.472348,13.986931,18.701181,2,0.071167,0.171814,0.022766,-0.9823,9.22,4.46,75.99,-33.327944,-10.884388,68.192317,14.102455,44.39101,68.201938,0,0,10.41160468,39.74997967,68.26518217,FALSE,85.00331291,85.00331291,0.4,0,-3.388013677,-0.205751035,-0.373263544,0.141258734
0.484982,13.986931,18.701181,2,0.054932,0.181824,0.027222,-0.981445,10.92,5.02,75.6,-36.297813,-11.601863,66.391342,14.601515,45.146054,66.411294,0,0,11.05163917,40.75568565,66.53510328,FALSE,89.1776252,89.1776252,0.4,0,-3.827839584,-0.347796682,-0.418846089,0.137761973
0.493615,15.197792,18.705823,2,0.037964,0.191284,0.031799,-0.980286,10.92,5.31,75.52,-37.769268,-11.769032,65.465188,15.340341,46.233474,65.475613,0,0,11.56961634,41.50991163,65.54727206,FALSE,92.38701275,92.38701275,0.4,0,-4.147550139,-0.44867715,-0.453271859,0.134323994
0.502496,16.686562,18.696539,2,0.020508,0.200195,0.03656,-0.978882,12.05,5.69,75.16,-40.108461,-11.974722,63.833094,16.532593,47.826978,63.851194,0,0,12.14581623,42.31882259,63.96460598,FALSE,95.88789634,95.88789634,0.4,0,-4.493366194,-0.55411129,-0.491641848,0.129871112
0.515116,17.61837,18.705823,2,0.002136,0.208435,0.041504,-0.977173,13.46,6.57,74.58,-42.517532,-12.486954,61.830343,17.771517,49.396244,61.852613,0,0,12.89993586,43.36812419,61.99408398,FALSE,100.4933738,100.4933738,0.4,0,-5.01473621,-0.708464466,-0.551637974,0.121904259
0.523981,18.362114,18.696539,2,-0.017395,0.216003,0.046814,-0.975098,11.98,8.28,73.63,-42.103952,-13.758303,60.591287,18.555253,50.450689,60.605186,0,0,13.5081051,44.16956534,60.6989098,FALSE,104.0859207,104.0859207,0.4,0,-5.389820938,-0.824796567,-0.597756174,0.115108079
0.535662,19.106987,18.696539,2,-0.038025,0.222839,0.05249,-0.972717,13.43,7.39,73.29,-44.497366,-12.262866,58.958929,19.469238,51.565885,58.97707,0,0,14.25113725,45.13579856,59.0924206,FALSE,108.4750183,108.4750183,0.4,0,-5.895615936,-0.976773205,-0.663668768,0.104586011
0.544372,19.388939,18.710465,2,-0.060303,0.22876,0.058594,-0.969849,12.51,8.7,73.27,-44.923761,-13.084405,58.406893,19.873951,52.006083,58.413177,0,0,14.85472291,45.89280764,58.4594868,FALSE,111.9710352,111.9710352,0.4,0,-6.285044944,-1.08716057,-0.716715546,0.095597579
0.553206,20.690666,18.701181,2,-0.085571,0.233459,0.065369,-0.96637,13.1,9.44,73.01,-46.512572,-12.961108,57.093264,20.808129,53.127956,57.107809,0,0,15.50085437,46.68775823,57.19808082,FALSE,115.6877174,115.6877174,0.4,0,-6.688919227,-1.202203601,-0.774021545,0.085485458
0.565377,21.99511,18.701181,2,-0.114563,0.236816,0.072998,-0.962036,13.14,11.07,72.4,-47.580069,-13.552156,55.58475,22.14751,54.660942,55.601534,0,0,16.33554972,47.69458351,55.70852502,FALSE,120.4589373,120.4589373,0.4,0,-7.261519993,-1.363550069,-0.858916943,0.069871564
0.574197,22.181755,18.701181,2,-0.145447,0.238953,0.081055,-0.956665,11.76,11.97,71.66,-47.239876,-13.711085,54.747342,22.651643,55.173032,54.756755,0,0,16.99860306,48.47233963,54.82108412,FALSE,124.1984231,124.1984231,0.4,0,-7.679675951,-1.483780962,-0.924807617,0.057314834
0.583067,23.579735,18.705823,2,-0.177124,0.240051,0.089233,-0.950256,11.15,12.75,71.28,-47.682552,-13.541367,53.948996,23.680264,56.35874,53.957897,0,0,17.70319151,49.28496046,54.01590275,FALSE,128.1496129,128.1496129,0.4,0,-8.100656919,-1.604645586,-0.994793394,0.043617662
0.595576,23.765923,18.705823,2,-0.210632,0.23999,0.097656,-0.942627,9.91,13.15,70.74,-47.411381,-13.205723,53.415678,24.439161,57.089139,53.421653,0,0,18.56723273,50.25642438,53.4617274,FALSE,132.9370512,132.9370512,0.4,0,-8.695421923,-1.771935261,-1.099844469,0.022498837
0.604323,24.324944,18.705823,2,-0.244934,0.238708,0.105835,-0.933716,9.28,14.39,70.06,-47.826876,-13.281633,52.323851,24.874124,57.447237,52.335949,0,0,19.24652412,51.01347761,52.41114906,FALSE,136.7048545,136.7048545,0.4,0,-9.11194644,-1.887777712,-1.177724994,0.006493082
0.61306,23.95208,18.705823,2,-0.278198,0.236633,0.113098,-0.924011,8.63,13.87,69.89,-47.676855,-11.87459,52.319064,24.844426,57.197826,52.31925,0,0,19.88456455,51.70436304,52.32612881,FALSE,140.1846149,140.1846149,0.4,0,-9.529154489,-1.997672672,-1.259158644,-0.010480508
0.625525,24.603966,18.701181,2,-0.310547,0.233765,0.119385,-0.913635,8.11,14.11,69.08,-47.509522,-10.973432,51.571418,25.421843,57.667015,51.579659,0,0,20.71669977,52.58368781,51.62931956,FALSE,144.6647351,144.6647351,0.4,0,-10.12240358,-2.14007297,-1.381636979,-0.036269007
0.634304,26.094628,18.701181,2,-0.340515,0.230469,0.124084,-0.903076,7.17,14.84,68.03,-47.091059,-10.690947,50.674352,26.321116,58.69603,50.684328,0,0,21.40188061,53.31169458,50.74761727,FALSE,148.3959317,148.3959317,0.4,0,-10.53765283,-2.235168761,-1.472324297,-0.055474131
0.643222,26.466545,18.691897,2,-0.367493,0.227112,0.126953,-0.892883,7.4,14.11,67.4,-46.708149,-8.590188,50.409583,26.930756,59.257077,50.41261,0,0,22.08617556,54.02173413,50.43551707,FALSE,152.0730164,152.0730164,0.4,0,-10.9559035,-2.321143342,-1.568164065,-0.075790726
0.655848,26.37368,18.696539,2,-0.392151,0.223572,0.128113,-0.883057,6.24,13.96,66.42,-45.465324,-7.909804,50.156431,27.359425,59.483298,50.159254,0,0,22.936144,54.86500325,50.17784257,FALSE,156.5047935,156.5047935,0.4,0,-11.53779464,-2.425307792,-1.710166781,-0.105755073
0.664557,26.560417,18.696539,2,-0.415771,0.219849,0.127991,-0.873169,7.15,12.28,66.05,-44.600332,-4.726698,50.5273,27.41478,59.221002,50.523244,0,0,23.558853,55.48277224,50.50048961,FALSE,159.769963,159.769963,0.4,0,-11.92998554,-2.48033344,-1.81235723,-0.127116687
0.673382,26.001763,18.705823,2,-0.438843,0.215698,0.126587,-0.863037,5.74,11.88,65.34,-42.931006,-4.168149,50.821811,27.121483,58.584201,50.818521,0,0,24.13915334,56.04077985,50.7971592,FALSE,162.7502214,162.7502214,0.4,0,-12.31621757,-2.519581952,-1.919343601,-0.149178814
0.693854,26.281334,18.701181,2,-0.485474,0.206421,0.120728,-0.840881,5.81,9.29,63.55,-39.208237,0.227956,51.19779,27.838936,59.021304,51.19361,0,0,25.34309367,57.14129653,51.1670536,FALSE,168.7229818,168.7229818,0.4,0,-13.15699486,-2.559913768,-2.180087403,-0.201172532
0.703323,26.000725,18.696539,2,-0.508484,0.201355,0.116394,-0.829041,6.57,9.66,62.55,-38.617973,2.181958,50.524987,27.311503,57.274634,50.532355,0,0,25.89179807,57.63225963,50.57424643,FALSE,171.4140007,171.4140007,0.4,0,-13.52546305,-2.54850403,-2.3064155,-0.225358336
0.713085,26.933373,18.696539,2,-0.531311,0.196045,0.11145,-0.816589,5.45,7.74,62.28,-35.648052,3.428152,51.824781,27.652252,57.428497,51.810539,0,0,26.4791189,58.15601007,51.72883985,FALSE,174.2965503,174.2965503,0.4,0,-13.88795552,-2.521121083,-2.440220396,-0.250103176
0.72706,26.467552,18.701181,2,-0.55426,0.190552,0.106018,-0.803284,6.28,5.59,61.08,-32.594487,6.314298,51.953942,27.767236,57.175584,51.952362,0,0,27.25765511,58.82738722,51.93667212,FALSE,178.031827,178.031827,0.4,0,-14.36480026,-2.453045713,-2.637636527,-0.284860167
0.735861,27.211968,18.691897,2,-0.577026,0.184814,0.100159,-0.789185,6.55,5.42,60.45,-31.096835,7.843166,51.941245,27.948176,57.099354,51.941368,0,0,27.7507079,59.24934503,51.94089416,FALSE,180.3913916,180.3913916,0.4,0,-14.64507392,-2.390745793,-2.765294479,-0.306175271
0.747691,27.211968,18.691897,2,-0.59967,0.179016,0.093872,-0.774292,6.24,3.45,59.87,-27.777631,9.247508,52.707999,28.198841,57.137924,52.699551,0,0,28.39623849,59.786421,52.64914661,FALSE,183.4216404,183.4216404,0.4,0,-14.99331639,-2.289654456,-2.940605557,-0.333859839
0.756172,28.236565,18.687255,2,-0.621948,0.173157,0.087219,-0.758667,6.3,4.1,58.94,-26.673642,10.16491,52.111403,28.707214,57.612069,52.117884,0,0,28.87353631,60.19085647,52.15265875,FALSE,185.7012389,185.7012389,0.4,0,-15.22421701,-2.207336098,-3.068743008,-0.352929327
0.764763,28.797386,18.696539,2,-0.643494,0.167236,0.080322,-0.742615,7.74,2.48,58.77,-23.87315,12.849332,52.772302,29.256233,58.131772,52.765091,0,0,29.36447349,60.60236419,52.72476289,FALSE,188.0316546,188.0316546,0.4,0,-15.44134075,-2.108478421,-3.200466911,-0.371467909
0.77679,28.983666,18.696539,2,-0.664246,0.161438,0.073303,-0.726196,7.95,2.02,58.08,-21.695535,13.914921,52.690301,29.801263,58.576944,52.691125,0,0,30.04428458,61.16653347,52.6929449,FALSE,191.2424758,191.2424758,0.4,0,-15.71536804,-1.947531586,-3.387827779,-0.395858725
0.785396,30.660698,18.687255,2,-0.68396,0.155762,0.066345,-0.709595,9.13,0.31,57.23,-18.284141,15.839076,52.664304,30.805903,59.736145,52.6646,0,0,30.57680401,61.62548895,52.66650133,FALSE,193.8416261,193.8416261,0.4,0,-15.88740059,-1.819500137,-3.523814493,-0.412068262
0.794028,32.059319,18.691897,2,-0.702698,0.150208,0.059448,-0.692871,9.72,0.23,56.71,-16.443275,16.937077,52.471529,32.047877,61.103106,52.473656,0,0,31.15550495,62.13892191,52.48648731,FALSE,196.7402239,196.7402239,0.4,0,-16.03728411,-1.67803826,-3.661601432,-0.427163638
0.806686,32.900627,18.705823,2,-0.720337,0.144958,0.052856,-0.67627,9.17,-2.43,55.18,-11.959189,16.548337,52.134279,33.319972,62.353664,52.138019,0,0,31.99166518,62.86313985,52.16130048,FALSE,200.8626658,200.8626658,0.4,0,-16.21704331,-1.466109075,-3.86573907,-0.447062946
0.815549,34.85659,18.691897,2,-0.736877,0.139771,0.046631,-0.65979,9.94,-1.61,54.46,-11.000059,17.516543,51.375813,34.767501,64.116924,51.384213,0,0,32.6603042,63.4696405,51.43607571,FALSE,204.2956965,204.2956965,0.4,0,-16.31878722,-1.31515056,-4.009921603,-0.459388098
0.824426,35.697106,18.696539,2,-0.75238,0.134827,0.041077,-0.643433,10.03,-2.53,53.93,-8.577744,17.569787,51.314049,35.876624,65.273423,51.314823,0,0,33.34279352,64.08067607,51.32341092,FALSE,207.7742684,207.7742684,0.4,0,-16.4056833,-1.159419884,-4.155169166,-0.470371479
0.836744,36.724083,18.701181,2,-0.766846,0.129883,0.036255,-0.627502,10.54,-2.03,53.27,-7.498825,18.067665,50.697429,37.176197,66.503587,50.704232,0,0,34.25941116,64.8761818,50.74545445,FALSE,212.3472208,212.3472208,0.4,0,-16.50469888,-0.939928817,-4.35786421,-0.483301368
0.845326,37.842064,18.691897,2,-0.780212,0.125244,0.032288,-0.612,10.8,-2.79,53.23,-5.512771,18.087909,50.9931,38.135479,67.5052,50.989917,0,0,34.96176205,65.50220489,50.97410063,FALSE,215.9393858,215.9393858,0.4,0,-16.56053164,-0.784785249,-4.499747114,-0.490702116
0.854194,38.403404,18.701181,2,-0.792603,0.12085,0.029236,-0.596924,10.99,-2.7,51.6,-4.160905,17.863975,49.539811,38.891015,68.143092,49.555791,0,0,35.68018871,66.13248206,49.64984989,FALSE,219.5780326,219.5780326,0.4,0,-16.60342472,-0.625374595,-4.646796096,-0.496954765
0.866802,38.963249,18.701181,2,-0.803894,0.116699,0.0271,-0.582581,10.49,-2.25,50.6,-3.637672,17.126803,48.671366,39.795946,68.808059,48.681112,0,0,36.63472574,66.91299803,48.74643544,FALSE,224.1634207,224.1634207,0.4,0,-16.65258695,-0.404792731,-4.856441994,-0.50344894
0.87567,40.268456,18.701181,2,-0.814148,0.112671,0.026001,-0.56897,10.36,-3.5,50.04,-1.673869,16.213539,48.557855,40.682683,69.644531,48.559213,0,0,37.37479124,67.53740019,48.57232294,FALSE,227.8193582,227.8193582,0.4,0,-16.67613832,-0.256961654,-5.004221562,-0.506383159
0.884539,41.854851,18.696539,2,-0.823425,0.108826,0.025757,-0.556274,9.6,-3.79,49.66,-1.022224,14.970724,48.450608,41.980675,70.964337,48.451805,0,0,38.16007297,68.21248321,48.45994602,FALSE,231.7680799,231.7680799,0.4,0,-16.68809415,-0.11867504,-5.152175251,-0.50804892
0.897027,41.388878,18.701181,2,-0.831604,0.10498,0.026489,-0.544739,8.31,-3.35,48.06,-1.231166,13.291694,47.030497,42.527072,71.12662,47.04616,0,0,39.12926309,68.96779629,47.14016453,FALSE,236.2896712,236.2896712,0.4,0,-16.70216432,0.057795498,-5.360664024,-0.508429051
0.905659,41.668358,18.696539,2,-0.838562,0.101135,0.028076,-0.534607,7.54,-2.32,47.47,-2.083288,12.483459,46.426936,42.643855,70.790473,46.43376,0,0,39.81899607,69.49744015,46.48165499,FALSE,239.4783791,239.4783791,0.4,0,-16.7164695,0.169041058,-5.504898848,-0.507450025
0.914523,41.388878,18.701181,2,-0.844482,0.097534,0.030579,-0.525757,5.91,-2.28,46.15,-2.473882,10.425572,45.33366,42.547098,70.251783,45.345783,0,0,40.48215188,69.96880748,45.42173432,FALSE,242.3709056,242.3709056,0.4,0,-16.73666688,0.270573884,-5.653163148,-0.505501651
0.927161,41.948876,18.701181,2,-0.84967,0.094177,0.034058,-0.517761,4.85,-2.73,45.28,-2.413538,8.730191,44.712647,43.091309,70.389352,44.719624,0,0,41.39778803,70.5792437,44.76704827,FALSE,246.1809561,246.1809561,0.4,0,-16.76755048,0.39161915,-5.864876298,-0.501317254
0.936043,42.041893,18.696539,2,-0.854187,0.091003,0.038391,-0.510437,3.94,-1.46,43.94,-3.825797,7.897396,43.259263,43.10813,69.866682,43.275356,0,0,42.02717196,70.97679161,43.37494046,FALSE,248.6996612,248.6996612,0.4,0,-16.79525937,0.465462264,-6.013928736,-0.497510955
0.944905,42.508934,18.701181,2,-0.858215,0.088074,0.043518,-0.503784,4.8,-2.19,43.38,-2.867573,7.798778,42.902376,43.382136,69.789444,42.906486,0,0,42.6507673,71.35141236,42.9386312,FALSE,251.1066711,251.1066711,0.4,0,-16.82491769,0.535012011,-6.162899741,-0.493077854
0.957317,42.788414,18.696539,2,-0.861877,0.085388,0.049316,-0.497498,3.59,-1.47,41.96,-4.088252,6.505048,41.432698,43.906964,69.875723,41.448939,0,0,43.50361551,71.83472012,41.54823336,FALSE,254.2646335,254.2646335,0.4,0,-16.86808554,0.623781555,-6.371998519,-0.485886381
0.966097,42.974938,18.696539,2,-0.865295,0.083069,0.055542,-0.49115,1.3,-0.78,41.19,-5.999672,4.398169,40.540973,43.980443,69.432299,40.550979,0,0,44.08035544,72.12467474,40.61825012,FALSE,256.2265713,256.2265713,0.4,0,-16.91237153,0.671646678,-6.520294726,-0.480199451
0.977976,43.814568,18.691897,2,-0.86853,0.081238,0.0625,-0.484863,0.92,0.23,39.94,-7.193685,4.118474,39.081803,44.71162,69.771062,39.097993,0,0,44.88584351,72.53325501,39.19967939,FALSE,258.9868016,258.9868016,0.4,0,-16.99073347,0.722231279,-6.721662218,-0.471920513
0.98661,43.535027,18.696539,2,-0.871643,0.079773,0.069763,-0.478577,0.44,1.01,38.66,-8.250834,3.701329,37.603664,44.632112,69.09669,37.620131,0,0,45.4187017,72.74389965,37.72611047,FALSE,260.5287076,260.5287076,0.4,0,-17.05740746,0.755989368,-6.868648042,-0.465539034
0.99547,44.654778,18.696539,2,-0.874512,0.078674,0.077148,-0.47229,0.42,1.24,37.95,-8.722598,3.480021,36.792928,45.258863,69.439601,36.802044,0,0,45.99728174,72.98766442,36.86452186,FALSE,262.2760572,262.2760572,0.4,0,-17.13259977,0.787802749,-7.020109774,-0.458700035
1.007932,44.748833,18.701181,2,-0.877258,0.077759,0.084534,-0.466125,-0.64,3.14,36.59,-10.958743,3.314139,34.900214,45.830988,69.510271,34.921172,0,0,46.80570755,73.30580386,35.0509159,FALSE,264.6115523,264.6115523,0.4,0,-17.2552342,0.83013716,-7.234380368,-0.448618651
1.016785,45.867668,18.691897,2,-0.879761,0.077087,0.091675,-0.460083,-2.3,2.67,35.64,-11.688252,1.441149,33.822131,46.469003,69.841122,33.834242,0,0,47.37983028,73.51331992,33.91640351,FALSE,266.1827744,266.1827744,0.4,0,-17.35548112,0.851186442,-7.387584699,-0.441176273
1.025374,46.33593,18.696539,2,-0.882019,0.076538,0.098572,-0.454346,-2.57,3.31,34.33,-12.419057,1.366181,32.249132,46.993068,70.016884,32.266599,0,0,47.93230398,73.69661431,32.37704525,FALSE,267.616627,267.616627,0.4,0,-17.45900996,0.863242521,-7.537095531,-0.433813657
1.037808,47.550041,18.701181,2,-0.884033,0.075989,0.105042,-0.449097,-3.96,3.26,32.08,-12.959202,-0.01686,29.790861,48.189044,70.782318,29.818143,0,0,48.78850469,74.01278879,29.98927334,FALSE,269.9946088,269.9946088,0.4,0,-17.6167866,0.871631249,-7.755161758,-0.423027947
1.046315,48.108818,18.691897,2,-0.885803,0.0755,0.110901,-0.444275,-4.51,3.87,29.31,-13.324791,-0.294914,26.772351,48.745562,70.941313,26.805915,0,0,49.35636712,74.18174371,27.01915365,FALSE,271.3764089,271.3764089,0.4,0,-17.72858556,0.870305119,-7.905503299,-0.415618621
1.055233,49.229057,18.691897,2,-0.88739,0.075134,0.116028,-0.439819,-5.24,4.59,26.16,-13.690408,-0.600829,23.347036,49.658808,71.509919,23.385152,0,0,49.98119828,74.36979158,23.62876129,FALSE,272.9077561,272.9077561,0.4,0,-17.84904634,0.866311001,-8.064143959,-0.407875049
1.067816,50.163292,18.691897,2,-0.888916,0.074829,0.120361,-0.435547,-3.06,4.74,18.5,-10.559868,0.985454,16.173935,50.852697,72.07591,16.2534,0,0,50.88242732,74.61124175,16.74587013,FALSE,274.9738503,274.9738503,0.4,0,-18.00161695,0.868730869,-8.289698407,-0.396959034
1.076699,51.005058,18.696539,2,-0.890442,0.074585,0.12384,-0.431519,-4.41,4.13,16.42,-10.408223,-0.498441,14.054945,51.582078,72.332725,14.079172,0,0,51.51987759,74.72333833,14.26139309,FALSE,276.1524512,276.1524512,0.4,0,-18.09474672,0.870893937,-8.450020407,-0.38923249
1.085575,51.37838,18.696539,2,-0.89209,0.074097,0.126221,-0.42749,-4.89,4.74,12.82,-10.172774,-0.554323,10.341138,52.106588,72.268265,10.38233,0,0,52.14510123,74.79573052,10.64190042,FALSE,277.1272666,277.1272666,0.4,0,-18.18608519,0.866221771,-8.611034739,-0.38152317
1.098162,52.592064,18.691897,2,-0.893677,0.073669,0.127808,-0.423828,-4.58,4.52,5.88,-7.834279,-0.571438,3.778994,53.298394,72.668334,3.851761,0,0,53.06346849,74.89110741,4.305516975,FALSE,278.5063598,278.5063598,0.4,0,-18.29941258,0.859136794,-8.840656219,-0.370664626
1.106873,52.965965,18.691897,2,-0.895264,0.07312,0.128479,-0.420288,-4.61,3.35,3.62,-6.342484,-1.342141,1.884236,53.738231,72.395321,1.905917,0,0,53.67995083,74.87864612,2.069996953,FALSE,279.0626379,279.0626379,0.4,0,-18.36115947,0.8508022,-9.00033134,-0.363216987
1.115728,53.620232,18.696539,2,-0.896851,0.072388,0.128357,-0.417053,-4.34,3.14,1.8,-5.50094,-1.271476,0.240771,54.311009,72.307619,0.259121,0,0,54.30843242,74.84942532,0.381109423,FALSE,279.5499557,279.5499557,0.4,0,-18.41359623,0.839230411,-9.163151571,-0.355734368
1.128246,54.554833,18.696539,2,-0.898499,0.071472,0.127441,-0.414001,-4.48,3.18,-0.06,-5.089328,-1.3585,-1.562272,55.357565,72.464305,-1.542201,0,0,55.21209627,74.80757711,-1.413175561,FALSE,280.2514791,280.2514791,0.4,0,-18.47988071,0.822769391,-9.394067843,-0.345331911
1.137101,55.115563,18.696539,2,-0.900146,0.070435,0.125793,-0.411072,-3.64,3.16,-1.35,-4.193284,-0.729157,-2.634936,55.858447,72.231199,-2.622894,0,0,55.83795297,74.74526076,-2.541202403,FALSE,280.5763834,280.5763834,0.4,0,-18.52097948,0.81352629,-9.557889152,-0.338087212
1.145882,55.957207,18.701181,2,-0.901733,0.069275,0.123596,-0.408386,-3.27,2.7,-2.5,-3.322994,-0.750873,-3.55338,56.549734,72.275687,-3.543126,0,0,56.4684384,74.68782077,-3.475725621,FALSE,280.929526,280.929526,0.4,0,-18.5539797,0.807028218,-9.72066676,-0.330972167
1.15834,56.33123,18.701181,2,-0.90332,0.068176,0.120789,-0.406006,-0.9,0.85,-4.21,-0.034728,-0.218731,-4.382656,57.322984,72.06342,-4.373405,0,0,57.34710338,74.5743761,-4.313076212,FALSE,281.2606037,281.2606037,0.4,0,-18.57489495,0.800988555,-9.95194252,-0.320955831
1.166998,57.637596,18.691897,2,-0.904785,0.067017,0.117432,-0.403809,-0.26,-0.18,-4.87,1.259121,-0.442482,-4.694217,58.129553,72.294654,-4.690682,0,0,57.97553035,74.51387629,-4.664975837,FALSE,281.5970953,281.5970953,0.4,0,-18.56959455,0.798126164,-10.11274102,-0.314033263
1.176011,58.385796,18.691897,2,-0.90625,0.065735,0.113586,-0.401855,0.05,-0.12,-5.84,1.629023,-0.205707,-5.605932,58.929218,72.438156,-5.595846,0,0,58.63440196,74.45441398,-5.533741736,FALSE,281.9691002,281.9691002,0.4,0,-18.55657913,0.7952051,-10.28005012,-0.306852916
1.188649,58.759392,18.691897,2,-0.907532,0.064392,0.10968,-0.400269,0.2,-1.15,-6.96,2.694696,-0.826187,-6.469943,59.745555,72.232701,-6.46031,0,0,59.53550874,74.3305487,-6.398117542,FALSE,282.272838,282.272838,0.4,0,-18.52925755,0.788684562,-10.51439552,-0.296844317
1.197477,59.973931,18.687255,2,-0.90863,0.06311,0.105896,-0.398987,0,-1.39,-7.53,2.81755,-1.163677,-7.024261,60.515757,72.370575,-7.018046,0,0,60.18097128,74.25956477,-6.976223203,FALSE,282.5760863,282.5760863,0.4,0,-18.5049265,0.779901302,-10.67786441,-0.289920579
1.206169,60.349663,18.696539,2,-0.909546,0.061829,0.102539,-0.397949,-0.02,-2.25,-7.92,3.454054,-1.779314,-7.258962,61.048393,72.179675,-7.256307,0,0,60.80329821,74.16811625,-7.23727025,FALSE,282.757671,282.757671,0.4,0,-18.4776701,0.767111063,-10.83859077,-0.283197263
1.218705,61.190178,18.691897,2,-0.910339,0.06073,0.099548,-0.397156,0.73,-3.02,-9.11,4.723067,-1.795275,-8.19243,62.034885,72.179054,-8.182114,0,0,61.70628958,74.04120725,-8.119150041,FALSE,283.0492633,283.0492633,0.4,0,-18.42641591,0.744705539,-11.06990558,-0.273721197
1.227525,62.124962,18.691897,2,-0.910889,0.059753,0.096985,-0.396606,1.37,-2.25,-9.55,4.652829,-0.825265,-8.707003,62.723528,72.180384,-8.701219,0,0,62.34774115,73.95404846,-8.661902854,FALSE,283.2709848,283.2709848,0.4,0,-18.38506821,0.733148958,-11.23224423,-0.267203858
1.239403,62.967186,18.696539,2,-0.911316,0.059021,0.09491,-0.396301,1.18,-2.94,-10.11,5.10058,-1.457526,-9.171074,63.721843,72.258153,-9.165896,0,0,63.21304834,73.83384837,-9.132010334,FALSE,283.5576703,283.5576703,0.4,0,-18.32714271,0.719591462,-11.45027805,-0.258576033
1.248247,63.901085,18.687255,2,-0.911499,0.058594,0.093445,-0.396179,0.67,-3.47,-10.54,5.200958,-2.211095,-9.572953,64.464674,72.327152,-9.568467,0,0,63.86738439,73.75507493,-9.539123827,FALSE,283.8329475,283.8329475,0.4,0,-18.28158931,0.70336882,-11.61216186,-0.252283703
1.257133,64.182213,18.691897,2,-0.91156,0.058411,0.09259,-0.396301,1.29,-3.35,-10.75,5.559158,-1.68474,-9.731706,64.943505,72.02531,-9.729907,0,0,64.50603064,73.64823445,-9.716931076,FALSE,283.957657,283.957657,0.4,0,-18.23378212,0.686059625,-11.77439966,-0.246110472
1.269257,65.023064,18.687255,2,-0.91156,0.058472,0.092468,-0.396423,0.44,-2.92,-11.16,4.771699,-2.031002,-10.313718,65.862145,71.957977,-10.307285,0,0,65.38007798,73.50543476,-10.26793244,FALSE,284.1451199,284.1451199,0.4,0.033411916,-18.17115646,0.663534797,-11.99508639,-0.237929231
1.277866,65.117272,18.691897,2,-0.911377,0.05896,0.092957,-0.396545,0.28,-2.56,-11.47,4.489206,-1.918708,-10.693829,66.048665,71.231477,-10.68957,0,0,65.96936587,73.3588182,-10.66115417,FALSE,284.0298644,284.0298644,0.4,0.06235086,-18.1312929,0.646533271,-12.15135029,-0.232290043
1.286665,65.865502,18.691897,2,-0.911072,0.059875,0.094116,-0.396851,0.64,-2.08,-11.8,4.492113,-1.345856,-11.044698,66.569057,70.996844,-11.040785,0,0,66.57845885,73.21656137,-11.01527248,FALSE,283.9557473,283.9557473,0.4,0.088635041,-18.09177958,0.632170821,-12.3107137,-0.226664384
1.299092,66.519524,18.687255,2,-0.910645,0.061218,0.095825,-0.397278,-0.03,-0.49,-12.39,3.09385,-0.791795,-11.981427,67.421668,70.812472,-11.971061,0,0,67.44067115,73.01575204,-11.90730353,FALSE,283.8541902,283.8541902,0.4,0.155084012,-18.0446442,0.618888527,-12.53524736,-0.218890927
1.307935,67.080895,18.687255,2,-0.910095,0.062927,0.097961,-0.397766,-0.06,-0.58,-12.52,3.232094,-0.894388,-12.076612,67.849335,70.411706,-12.075449,0,0,68.0374515,72.8452853,-12.06362264,FALSE,283.633429,283.633429,0.4,0.167423789,-18.01667404,0.611433069,-12.69469248,-0.21345106
1.31678,66.893944,18.687255,2,-0.909363,0.064941,0.100647,-0.398376,-0.4,0.41,-12.75,2.436958,-0.502117,-12.517973,67.918643,69.569273,-12.513096,0,0,68.59541591,72.62320679,-12.4831152,FALSE,283.1271634,283.1271634,0.4,0.199804699,-17.99160266,0.605257025,-12.85393909,-0.208070248
1.329336,66.988701,18.691897,2,-0.908569,0.067139,0.103699,-0.399109,-0.95,0.91,-12.94,1.857605,-0.597896,-12.859491,68.251251,68.732721,-12.855674,0,0,69.38451336,72.30201572,-12.83061544,FALSE,282.3787653,282.3787653,0.4,0.227789392,-17.96464139,0.598351144,-13.07967239,-0.200513996
1.337925,67.551659,18.701181,2,-0.907593,0.069458,0.106995,-0.400024,-0.99,1.82,-13.17,1.344688,-0.046702,-13.263905,68.43449,68.008445,-13.259407,0,0,69.88682513,72.03273652,-13.230663,FALSE,281.5936429,281.5936429,0.4,0.259889856,-17.95088914,0.595582918,-13.23391163,-0.195386646
1.346794,67.924034,18.691897,2,-0.906494,0.071838,0.110474,-0.401123,-2.34,2.67,-13.29,-0.001451,-0.508691,-13.746628,68.741732,67.499073,-13.741259,0,0,70.40019075,71.74758771,-13.70704313,FALSE,280.7452826,280.7452826,0.4,0.298441676,-17.94493256,0.593120027,-13.39309165,-0.190115343
1.359309,68.764641,18.687255,2,-0.905334,0.074219,0.114014,-0.402344,-2.83,3.42,-13.32,-0.728507,-0.402489,-14.015539,69.598684,67.340275,-14.012517,0,0,71.17456729,71.41071934,-13.9918712,FALSE,279.9130751,279.9130751,0.4,0.323282878,-17.94950027,0.587418319,-13.61770107,-0.182728124
1.368172,69.23391,18.691897,2,-0.904053,0.076538,0.117554,-0.403748,-3.06,4.01,-13.43,-1.148439,-0.216991,-14.298343,69.982879,66.896021,-14.295193,0,0,71.6828819,71.11977989,-14.27483047,FALSE,279.0357328,279.0357328,0.4,0.34798701,-17.95781796,0.584673093,-13.77682435,-0.177534001
1.377072,69.889702,18.696539,2,-0.90271,0.078796,0.120911,-0.405334,-3,3.72,-13.54,-0.757304,-0.400155,-14.333059,70.52374,66.696661,-14.332642,0,0,72.19867594,70.83634905,-14.32859172,FALSE,278.2033364,278.2033364,0.4,0.355001044,-17.96629851,0.581926793,-13.93668667,-0.172342632
1.389629,70.730492,18.691897,2,-0.901306,0.080933,0.124023,-0.407104,-3.19,4.44,-13.41,-1.32196,-0.097141,-14.420862,71.480171,66.666676,-14.41989,0,0,72.97299475,70.50255775,-14.41378305,FALSE,277.392107,277.392107,0.4,0.365127018,-17.97935317,0.57880452,-14.16237144,-0.16505498
1.39825,71.292595,18.691897,2,-0.899902,0.082764,0.126709,-0.409058,-3.35,4.26,-13.74,-1.104532,-0.382974,-14.723879,71.945318,66.375594,-14.720529,0,0,73.46996629,70.22984072,-14.70008842,FALSE,276.5954253,276.5954253,0.4,0.390851886,-17.98981257,0.576734985,-14.31741653,-0.160074027
1.410238,71.853172,18.691897,2,-0.898499,0.084412,0.129028,-0.411011,-3.51,4.89,-13.61,-1.612368,-0.121646,-14.793575,72.686419,66.128047,-14.79277,0,0,74.19173465,69.89279443,-14.78640273,FALSE,275.7206422,275.7206422,0.4,0.401596184,-18.00609767,0.573710292,-14.53317602,-0.153178258
1.419077,73.069267,18.687255,2,-0.897217,0.085754,0.13092,-0.412964,-3.27,5.16,-13.58,-1.59831,0.20625,-14.803333,73.49285,66.327278,-14.803216,0,0,74.72491558,69.64900247,-14.80203412,FALSE,275.1005808,275.1005808,0.4,0.405682814,-18.02028726,0.5740842,-14.69239462,-0.14810558
1.427706,73.44442,18.687255,2,-0.895935,0.086792,0.132324,-0.4151,-3.44,4.57,-13.67,-1.202023,-0.335684,-14.765886,74.036615,66.162788,-14.766297,0,0,75.23484898,69.39985064,-14.7686593,FALSE,274.4333004,274.4333004,0.4,0.405869171,-18.03236929,0.573525757,-14.84794381,-0.143154217
1.440158,73.725823,18.691897,2,-0.894653,0.087524,0.13324,-0.417297,-3.67,5.12,-13.59,-1.732415,-0.184573,-14.877317,74.678988,65.7549,-14.876094,0,0,75.98299588,69.06088944,-14.8689808,FALSE,273.5821697,273.5821697,0.4,0.418155259,-18.0506391,0.570286637,-15.07259662,-0.136032841
1.449041,74.941063,18.687255,2,-0.893494,0.08783,0.133667,-0.419617,-3.33,4.24,-13.74,-0.823412,-0.50892,-14.728095,75.414841,65.850556,-14.729726,0,0,76.51598806,68.82143242,-14.73890379,FALSE,272.9869637,272.9869637,0.4,0.410243579,-18.06199081,0.567206487,-15.23299087,-0.130980665
1.457896,75.036431,18.691897,2,-0.892334,0.087891,0.133667,-0.422119,-3.6,4.57,-13.63,-1.26102,-0.52567,-14.756574,75.778314,65.428983,-14.756278,0,0,77.02430868,68.55602816,-14.75521836,FALSE,272.2464061,272.2464061,0.4,0.414794551,-18.07121963,0.56262584,-15.39297066,-0.125978333
1.47022,75.50341,18.687255,2,-0.891235,0.087524,0.13324,-0.424622,-3.4,3.84,-13.65,-0.61364,-0.841235,-14.544566,76.42399,65.049584,-14.546899,0,0,77.75357807,68.21995522,-14.56072731,FALSE,271.3966609,271.3966609,0.4,0.402416805,-18.08277129,0.554202972,-15.61575155,-0.119096434
1.478793,76.534355,18.691897,2,-0.890198,0.086975,0.132385,-0.427185,-2.46,4.19,-13.82,-0.28189,0.09284,-14.646251,77.045241,65.019351,-14.645156,0,0,78.25090701,67.97814162,-14.63968963,FALSE,270.7595268,270.7595268,0.4,0.412021153,-18.08660998,0.550994976,-15.7707916,-0.114359003
1.487597,77.186455,18.677971,2,-0.88916,0.086182,0.131104,-0.42981,-1.82,3.84,-13.78,0.300311,0.37305,-14.412367,77.698808,64.999121,-14.414932,0,0,78.76889339,67.74224502,-14.42980723,FALSE,270.1721822,270.1721822,0.4,0.396865686,-18.08652889,0.553045824,-15.93002576,-0.109499015
1.500242,77.376183,18.687255,3,-0.888184,0.085205,0.129517,-0.432495,-2.59,2.62,-13.7,0.672437,-0.983929,-14.136519,78.332317,64.587862,-14.139587,0,0,79.5155066,67.41327301,-14.15902014,FALSE,269.3796361,269.3796361,0.4,0.37725887,-18.08037869,0.549183542,-16.15869103,-0.10253017
1.509114,77.937615,18.687255,3,-0.887146,0.084106,0.127563,-0.435425,-2.03,3.18,-13.84,0.563454,-0.210559,-14.332359,78.675246,64.11516,-14.330235,0.018,0.018,80.00805445,67.14632473,-14.31906044,FALSE,267.7689207,268.6252013,0.4108,0.394257924,-18.07489628,0.543884793,-16.31907583,-0.097681319
1.517977,78.68676,18.687255,3,-0.886108,0.082764,0.125427,-0.438416,-2.09,1.84,-13.86,1.474448,-1.068403,-14.019178,79.249615,63.999815,-14.022606,0.038,0.038,80.51043005,66.89594082,-14.04218503,FALSE,266.1843473,267.9596088,0.4228,0.372824103,-18.06586531,0.538217073,-16.47923362,-0.092885984
1.530377,79.343163,18.691897,3,-0.885071,0.081299,0.123047,-0.441528,-1.56,1.63,-13.95,1.894076,-0.769312,-13.982649,80.096449,63.894811,-13.983089,0.06,0.06,81.24224037,66.59154971,-13.98721664,FALSE,264.5294577,267.2736852,0.436,0.371353586,-18.04498046,0.52682324,-16.70312086,-0.086282734
1.539183,79.903649,18.682613,3,-0.883911,0.079773,0.120544,-0.444702,-1.9,0.42,-13.87,2.524393,-1.750666,-13.664727,80.546502,63.60694,-13.668236,0.078,0.078,81.73524112,66.34370311,-13.68946846,FALSE,263.107611,266.6140875,0.4468,0.347465488,-18.02552595,0.515727777,-16.8619393,-0.081692382
1.548016,80.372399,18.687255,3,-0.882751,0.078186,0.117981,-0.447998,-1.35,0.46,-13.87,2.734848,-1.271326,-13.613047,81.007033,63.352966,-13.613655,0.098,0.098,82.22699446,66.097095,-13.61891008,FALSE,261.632651,265.9606006,0.4588,0.343696288,-18.00229851,0.502381149,-17.02105619,-0.077195904
1.560554,81.217156,18.691897,3,-0.88147,0.076599,0.115417,-0.451477,-1.08,0.01,-13.88,3.165504,-1.300713,-13.49477,81.922284,63.336635,-13.49608,0.122,0.122,82.96567257,65.80641655,-13.50429407,FALSE,260.0756618,265.3514484,0.4732,0.336305403,-17.9653092,0.486257037,-17.24653712,-0.070998131
1.569406,82.15374,18.691897,3,-0.880127,0.075195,0.112854,-0.454956,-1.16,-0.07,-13.79,3.087558,-1.398117,-13.417408,82.616998,63.420133,-13.418275,0.138,0.138,83.48037939,65.59641564,-13.42407392,FALSE,259.0134463,264.8938236,0.4828,0.331112579,-17.93763315,0.474312015,-17.40544354,-0.066746653
1.578269,82.620537,18.687255,3,-0.878662,0.073975,0.110413,-0.458618,-0.83,0.2,-13.75,2.982355,-0.963751,-13.415245,83.180613,63.303967,-13.415278,0.158,0.158,83.99190148,65.38439842,-13.41592237,FALSE,257.7991596,264.4248903,0.4948,0.332511733,-17.91073433,0.463845397,-17.56430558,-0.062589208
1.590626,82.715965,18.691897,3,-0.877014,0.073059,0.108154,-0.462341,-0.35,-0.66,-13.59,3.828816,-1.042572,-13.019158,83.692125,62.803575,-13.023524,0.140625,0.140625,84.69798721,65.08293984,-13.04959784,FALSE,257.895516,263.7390255,0.484375,0.301505781,-17.86865151,0.45144933,-17.78536852,-0.05693406
1.599438,83.182762,18.687255,3,-0.875366,0.072327,0.106079,-0.466125,-0.47,-1.27,-13.55,4.191808,-1.471373,-12.872475,83.948978,62.248356,-12.87414,0.124625,0.124625,85.17021754,64.83250789,-12.8860639,FALSE,257.9154082,263.0568273,0.474775,0.288501833,-17.83331264,0.440372889,-17.94267137,-0.053004691
1.619261,83.839958,18.691897,3,-0.871521,0.071594,0.102539,-0.474121,-0.19,-0.9,-13.58,3.979054,-1.020222,-12.976456,85.116354,61.907417,-12.975329,0.084625,0.084625,86.323534,64.39954952,-12.9695212,FALSE,258.7585096,262.218466,0.450775,0.300327072,-17.75232714,0.415677445,-18.29537844,-0.044519948
1.628204,84.492516,18.677971,3,-0.869568,0.071533,0.101196,-0.478027,-0.31,-1.02,-13.58,3.989971,-1.181187,-12.970664,85.300681,61.04408,-12.970716,0.064625,0.064625,86.78032575,64.12153878,-12.97057635,FALSE,258.7769719,261.3991751,0.438775,0.303038132,-17.71669365,0.405833844,-18.45397817,-0.04084656
1.637848,84.772118,18.673329,3,-0.867554,0.071838,0.100281,-0.481873,-0.53,-1.02,-13.65,3.885033,-1.368781,-13.064383,85.580556,60.440683,-13.063351,0.044625,0.044625,87.2689466,63.82038473,-13.05718617,FALSE,258.7133055,260.5080004,0.426775,0.31428758,-17.67872038,0.393537899,-18.62465485,-0.03699199
1.650669,84.774712,18.682613,3,-0.865479,0.072388,0.09967,-0.485535,-0.05,-0.76,-13.69,3.926523,-0.826792,-13.110857,85.884398,59.620004,-13.110333,0.020625,0.020625,87.92222308,63.42877289,-13.10673942,FALSE,258.5516915,259.3709979,0.412375,0.323035959,-17.6286444,0.379463178,-18.85099272,-0.032036666
1.659505,85.991295,18.677971,3,-0.863403,0.073181,0.099487,-0.489136,-0.58,-0.64,-13.61,3.552757,-1.220529,-13.109761,86.472956,59.600991,-13.109768,0.002625,0.002625,88.35943709,63.14581724,-13.10952921,FALSE,258.4141348,258.51749,0.401575,0.326213302,-17.59560094,0.370418114,-19.00661343,-0.028723691
1.668482,87.021202,18.673329,3,-0.861328,0.07428,0.099548,-0.492615,-0.45,-0.05,-13.63,3.153867,-0.820981,-13.242386,87.325039,59.906703,-13.240924,0,0,88.83229007,62.9012047,-13.23219323,FALSE,257.8764621,257.8764621,0.4,0.3409773,-17.56549826,0.361254796,-19.16443402,-0.025439577
1.681151,86.928337,18.677971,3,-0.859253,0.075623,0.099915,-0.495972,-0.51,-0.22,-13.66,3.305433,-0.973031,-13.229947,87.852543,59.451085,-13.230068,0,0,89.49483979,62.55203829,-13.23011937,FALSE,256.9521768,256.9521768,0.4,0.344585659,-17.52458182,0.349890627,-19.38671214,-0.020934826
1.690006,87.585747,18.682613,3,-0.857239,0.077209,0.100525,-0.499084,-0.52,0.47,-13.73,2.779168,-0.662578,-13.447734,88.223336,59.101408,-13.445335,0,0,89.92717664,62.27053917,-13.4310386,FALSE,256.1079293,256.1079293,0.4,0.368134712,-17.49764225,0.342648968,-19.54177303,-0.017868607
1.698767,88.431084,18.687255,3,-0.855164,0.078979,0.101318,-0.502197,-0.45,1.1,-13.65,2.307194,-0.317064,-13.502275,88.860828,59.140627,-13.501647,0,0,90.37231894,62.01784222,-13.49680975,FALSE,255.4092022,255.4092022,0.4,0.377882074,-17.47536144,0.338357647,-19.69497228,-0.014885458
1.711324,89.6455,18.673329,3,-0.852966,0.080933,0.102356,-0.505371,-0.55,1.71,-13.57,1.776098,-0.138812,-13.571939,90.057702,59.527604,-13.571164,0,0,91.07596592,61.74784629,-13.5661751,FALSE,254.8928907,254.8928907,0.4,0.388365879,-17.44972449,0.335495429,-19.91424943,-0.010654671
1.719895,90.490471,18.677971,3,-0.850708,0.083069,0.103455,-0.508667,-0.83,1.86,-13.52,1.561842,-0.348677,-13.578604,90.818806,59.780798,-13.578522,0.015625,0.015625,91.55013993,61.55786008,-13.57765046,FALSE,253.9452541,254.5100108,0.409375,0.391960627,-17.43541975,0.333406295,-20.06374971,-0.007788093
1.728931,90.960747,18.682613,3,-0.848206,0.085327,0.104675,-0.512146,-0.79,2.09,-13.57,1.45893,-0.2466,-13.67288,91.440542,59.762643,-13.67184,0.03125,0.03125,92.04993909,61.35986007,-13.66557399,FALSE,253.0049677,254.1178337,0.41875,0.403700407,-17.4217719,0.330716833,-20.22123451,-0.004787585
1.741559,91.240013,18.677971,3,-0.845581,0.087646,0.105896,-0.515808,-1.06,2.57,-13.44,0.955818,-0.30525,-13.687763,92.077733,59.446091,-13.687587,0.015625,0.015625,92.74595651,61.08212662,-13.68606068,FALSE,253.0140162,253.5648133,0.409375,0.409544536,-17.40652518,0.327232453,-20.44114037,-0.000633293
1.750441,91.990624,18.677971,3,-0.842834,0.089905,0.107117,-0.519653,-0.92,2.83,-13.47,0.864322,-0.109578,-13.767234,92.554552,59.248818,-13.766357,0.015625,0.015625,93.22451669,60.87502867,-13.76100639,FALSE,252.5688527,253.1136362,0.409375,0.420308565,-17.39844194,0.325390201,-20.59570923,0.002265004
1.759092,92.273033,18.682613,3,-0.840027,0.092102,0.108337,-0.52356,-0.9,3,-13.43,0.77522,-0.059774,-13.768446,92.903705,58.915889,-13.768423,0,0,93.67870443,60.65940663,-13.76787524,FALSE,252.6013164,252.6013164,0.4,0.424037877,-17.3913501,0.324657669,-20.74619248,0.005076786
1.771552,93.211174,18.682613,3,-0.837158,0.094238,0.109436,-0.527527,-0.97,3.42,-13.32,0.407934,0.015279,-13.780157,93.815091,58.961792,-13.780027,0.015625,0.015625,94.37362218,60.40716964,-13.77921476,FALSE,251.6362195,252.1675588,0.409375,0.428811565,-17.38397905,0.324380466,-20.96284278,0.009120294
1.780236,93.398064,18.682613,3,-0.83429,0.096313,0.110413,-0.531494,-0.85,3.98,-13.31,0.020785,0.308833,-13.914851,94.084348,58.48605,-13.913365,0,0,94.82459496,60.18923624,-13.90444499,FALSE,251.6450662,251.6450662,0.4,0.445549788,-17.38211756,0.32578776,-21.11379717,0.011943324
1.792249,94.053826,18.677971,3,-0.831482,0.098206,0.111267,-0.5354,-0.46,3.96,-13.34,0.247019,0.604513,-13.907654,94.768208,58.296155,-13.907717,0,0,95.47357675,59.92371035,-13.90740783,FALSE,251.1101625,251.1101625,0.4,0.449832331,-17.38050899,0.331273773,-21.32259889,0.015889964
1.801129,94.52581,18.691897,3,-0.828613,0.099854,0.112,-0.539307,-1.12,3.99,-13.25,-0.030842,-0.028571,-13.88289,95.144503,57.967263,-13.883164,0,0,95.93302446,59.70333409,-13.88477102,FALSE,250.588854,250.588854,0.4,0.450655739,-17.37954916,0.333830955,-21.47693355,0.018843029
1.809976,95.369133,18.687255,3,-0.825806,0.101318,0.112488,-0.543274,-0.81,4.19,-13.23,-0.061044,0.288516,-13.898146,95.786777,58.013877,-13.897981,0,0,96.40765833,59.5094834,-13.89711988,FALSE,250.202159,250.202159,0.4,0.454971175,-17.37995562,0.334980822,-21.63069221,0.021801518
1.822224,95.744072,18.687255,3,-0.822876,0.102539,0.112854,-0.547363,-0.97,3.99,-13.21,0.070342,0.021768,-13.83327,96.471519,57.81391,-13.833983,0,0,97.0675606,59.24798111,-13.83816859,FALSE,249.702201,249.702201,0.4,0.45237583,-17.37989868,0.336881001,-21.84356156,0.025916
1.830923,96.212486,18.682613,3,-0.820007,0.103577,0.113037,-0.551453,-1.28,4.18,-13.11,-0.223278,-0.232101,-13.815916,96.823486,57.474601,-13.816115,0,0,97.51583778,59.03837375,-13.81762323,FALSE,249.2225155,249.2225155,0.4,0.453270004,-17.38056388,0.335966158,-21.99475219,0.028842549
1.839509,96.867394,18.677971,3,-0.817139,0.104309,0.113037,-0.555542,-1.51,3.95,-13.03,-0.115244,-0.565397,-13.686875,97.341848,57.389886,-13.688299,0,0,97.96633288,58.84517259,-13.69690603,FALSE,248.8190507,248.8190507,0.4,0.442508101,-17.38201715,0.332542499,-22.14398795,0.031712457
1.851983,97.337944,18.682613,3,-0.81427,0.104736,0.112854,-0.559692,-1.46,3.61,-12.76,0.127898,-0.660689,-13.323977,98.054429,57.220928,-13.327992,0,0,98.63302365,58.58571135,-13.35258818,FALSE,248.340993,248.340993,0.4,0.406889161,-17.38193823,0.3248954,-22.36081074,0.035812897
1.860793,97.900993,18.682613,3,-0.811401,0.10498,0.112427,-0.563843,-1.27,3.31,-12.59,0.406551,-0.608295,-13.059131,98.468898,56.975221,-13.062094,0,0,99.08813261,58.38731699,-13.08164508,FALSE,247.922407,247.922407,0.4,0.378327588,-17.37958398,0.319305526,-22.51393525,0.038650602
1.869664,98.371605,18.687255,3,-0.808594,0.105042,0.111755,-0.567993,-1.19,3.61,-12.42,0.10302,-0.453024,-12.980296,98.917516,56.786591,-12.981197,0,0,99.54592797,58.19175657,-12.98807152,FALSE,247.520377,247.520377,0.4,0.369981151,-17.37732378,0.314598045,-22.66809951,0.041462281
1.882202,99.309227,18.687255,3,-0.805725,0.104919,0.110962,-0.572205,-0.78,3.27,-12.62,0.58279,-0.211824,-13.045314,99.85583,56.904357,-13.044607,0,0,100.227574,57.9658962,-13.04092237,FALSE,247.2107068,247.2107068,0.4,0.379070754,-17.37302444,0.310430113,-22.88594945,0.045380583
1.890942,99.871849,18.687255,3,-0.802917,0.104675,0.109924,-0.576477,-0.87,1.97,-13.09,1.841353,-0.749255,-13.116195,100.361983,56.803532,-13.115406,0,0,100.6919503,57.79604944,-13.11042008,FALSE,246.9308443,246.9308443,0.4,0.389503872,-17.36243093,0.306230198,-23.03774339,0.048075388
1.899738,100.059929,18.687255,3,-0.799988,0.10437,0.108704,-0.580811,-0.32,2.53,-13.07,1.467546,-0.06887,-13.235183,100.686337,56.458372,-13.233863,0,0,101.1447979,57.60728939,-13.22561118,FALSE,246.557826,246.557826,0.4,0.405744285,-17.34787839,0.302632084,-23.19039933,0.050753164
1.912267,100.6231,18.687255,3,-0.797058,0.104004,0.107361,-0.585144,0.06,2.38,-12.89,1.625613,0.238477,-13.004648,101.355985,56.250127,-13.007174,0,0,101.8051874,57.36091518,-13.02160034,FALSE,246.1422655,246.1422655,0.4,0.384793935,-17.3285013,0.303694587,-23.40762951,0.054551498
1.921132,101.185814,18.687255,3,-0.794067,0.103638,0.105896,-0.589478,-0.63,1.63,-12.9,2.077441,-0.654125,-12.834326,101.755225,55.989666,-12.836231,0,0,102.2586247,57.17268694,-12.84869372,FALSE,245.7752142,245.7752142,0.4,0.366478574,-17.31208751,0.301852228,-23.56117392,0.057235584
1.930011,101.373375,18.687255,3,-0.791077,0.10321,0.10437,-0.593811,-0.03,1.91,-12.92,1.955657,-0.014805,-12.913182,102.030824,55.583593,-12.912334,0,0,102.6985947,56.9690199,-12.90823446,FALSE,245.3289021,245.3289021,0.4,0.376335902,-17.29418257,0.298882513,-23.71480845,0.059902546
1.942594,102.12423,18.687255,3,-0.788086,0.102905,0.102966,-0.598083,-0.69,1.2,-12.91,2.396787,-0.852874,-12.732316,102.783451,55.490902,-12.7343,0,0,103.3517917,56.72280657,-12.74581251,FALSE,244.9127747,244.9127747,0.4,0.359709378,-17.26679917,0.29342351,-23.93224887,0.063629039
1.951164,102.404839,18.682613,3,-0.785034,0.102539,0.101562,-0.602417,-0.13,1.67,-12.88,2.067348,-0.200412,-12.821319,103.038509,55.05251,-12.82036,0,0,103.7681949,56.52101432,-12.81552615,FALSE,244.4545077,244.4545077,0.4,0.370885182,-17.24767035,0.28891018,-24.08014337,0.066124339
1.963063,103.063255,18.687255,3,-0.781921,0.102234,0.100281,-0.606689,-0.77,1.17,-12.82,2.327027,-0.951798,-12.648832,103.707058,54.920631,-12.650723,0,0,104.372999,56.2790353,-12.66162081,FALSE,244.0125231,244.0125231,0.4,0.354925623,-17.22152602,0.282055106,-24.28521786,0.069521297
1.97165,103.816796,18.696539,3,-0.778687,0.102051,0.09906,-0.611084,0.2,1.59,-12.8,2.136829,0.079128,-12.721471,104.241919,54.904667,-12.720691,0,0,104.8055669,56.1031286,-12.7168793,FALSE,243.685556,243.685556,0.4,0.364075709,-17.20236045,0.278308298,-24.43301681,0.071927218
1.980287,104.188927,18.687255,3,-0.77533,0.101929,0.0979,-0.61554,-0.42,1.41,-12.87,2.157378,-0.580091,-12.759726,104.685012,54.754918,-12.759296,0,0,105.2366419,55.92262214,-12.7564388,FALSE,243.3384937,243.3384937,0.4,0.371416539,-17.18381592,0.276144889,-24.58151352,0.074321624
1.992802,104.284569,18.691897,3,-0.771912,0.10199,0.096802,-0.619934,-0.4,0.8,-12.79,2.693836,-0.701042,-12.515397,105.13702,54.315707,-12.518084,0,0,105.8555076,55.65599511,-12.53388978,FALSE,242.810318,242.810318,0.4,0.346660606,-17.15345945,0.268128199,-24.79637902,0.077727412
2.001648,105.503441,18.687255,3,-0.768494,0.102112,0.095825,-0.62439,-0.11,1.44,-12.84,2.152429,-0.299226,-12.736925,105.829936,54.517568,-12.734513,0,0,106.3065914,55.49051692,-12.72134812,FALSE,242.5509263,242.5509263,0.4,0.372730957,-17.13202442,0.263704014,-24.94802371,0.080079706
2.010543,106.350212,18.691897,3,-0.764954,0.102356,0.094971,-0.628784,-0.03,1.08,-12.73,2.464544,-0.299155,-12.532234,106.615505,54.802492,-12.534463,0,0,106.778037,55.34864361,-12.54674286,FALSE,242.4141142,242.4141142,0.4,0.352175302,-17.11149043,0.261042715,-25.10032174,0.082413517
2.023001,106.162041,18.691897,3,-0.761353,0.102722,0.094177,-0.633179,-0.31,1.19,-12.86,2.336804,-0.571969,-12.692673,107.034025,54.315976,-12.690929,0,0,107.403402,55.10750366,-12.68147724,FALSE,242.0074893,242.0074893,0.4,0.372754392,-17.08158283,0.255616483,-25.3133104,0.085631788
2.031605,107.09832,18.682613,3,-0.757751,0.103271,0.093506,-0.637512,0.36,1.06,-12.86,2.573126,0.051045,-12.649479,107.538251,54.262711,-12.649936,0,0,107.8395046,54.94822075,-12.65193392,FALSE,241.7632099,241.7632099,0.4,0.371061224,-17.06046032,0.253375468,-25.46018947,0.087821471
2.040496,107.477318,18.691897,3,-0.754089,0.103882,0.092957,-0.641785,0.36,1.54,-12.84,2.10854,0.113901,-12.763531,107.98494,54.103274,-12.76228,0,0,108.2866528,54.78115252,-12.75496927,FALSE,241.4978307,241.4978307,0.4,0.386863096,-17.03964797,0.254108736,-25.6117815,0.090077492
2.053154,107.664482,18.691897,3,-0.750366,0.104553,0.092529,-0.646057,0.22,1.68,-12.86,1.959307,-0.021895,-12.822271,108.482715,53.709821,-12.82161,0,0,108.9153964,54.53429635,-12.81710762,FALSE,241.0758535,241.0758535,0.4,0.398610203,-17.01390257,0.254691041,-25.82730642,0.093297686
2.062044,108.603478,18.691897,3,-0.746643,0.105408,0.092163,-0.65033,-0.17,1.61,-12.7,1.933461,-0.432647,-12.648542,109.029921,53.702746,-12.65045,0,0,109.3612705,54.36908444,-12.66147438,FALSE,240.8199221,240.8199221,0.4,0.380280715,-16.99659921,0.252670602,-25.9784831,0.095552908
2.070891,109.35537,18.691897,3,-0.742798,0.106323,0.091919,-0.654541,0.47,1.94,-12.74,1.723766,0.220731,-12.777781,109.692947,53.840456,-12.776377,0,0,109.8183758,54.22577522,-12.76885795,FALSE,240.66918,240.66918,0.4,0.396690174,-16.98042147,0.251733192,-26.12878045,0.097784138
2.083262,110.106285,18.691897,3,-0.738953,0.1073,0.091797,-0.658813,0.38,2.05,-12.72,1.612155,0.122141,-12.787943,110.597956,53.982501,-12.787815,0,0,110.4697401,54.0430067,-12.7864788,FALSE,240.5465731,240.5465731,0.4,0.401756261,-16.95978713,0.253854027,-26.33871761,0.100911448
2.091854,110.291405,18.682613,3,-0.735046,0.108398,0.091614,-0.662964,0.04,1.92,-12.65,1.692911,-0.252317,-12.679928,110.883202,53.6092,-12.681117,0,0,110.9026469,53.89183976,-12.6881026,FALSE,240.340391,240.340391,0.4,0.390660155,-16.94558857,0.253294791,-26.4843751,0.103090159
2.100733,111.230644,18.682613,3,-0.73114,0.109436,0.091614,-0.667175,0.04,1.88,-12.69,1.760379,-0.278311,-12.704178,111.559715,53.758225,-12.703924,0,0,111.3734426,53.76955762,-12.70294469,FALSE,240.294919,240.294919,0.4,0.394462816,-16.93025768,0.250939068,-26.63476692,0.105328706
2.113373,110.949791,18.687255,3,-0.727173,0.110474,0.091553,-0.671265,-0.28,2.14,-12.6,1.477579,-0.595509,-12.683838,111.884138,53.158006,-12.684059,0,0,111.9987409,53.53746831,-12.68530389,FALSE,239.9420938,239.9420938,0.4,0.395464002,-16.90979379,0.245416525,-26.84863605,0.108465673
2.122219,111.230644,18.682613,3,-0.723206,0.111572,0.091553,-0.675415,0.29,2.93,-12.64,0.796876,-0.003579,-12.953916,111.973881,52.473119,-12.950943,0,0,112.4119777,53.34498961,-12.93330806,FALSE,239.5458857,239.5458857,0.4,0.432679599,-16.89973388,0.242766759,-26.99817559,0.110624908
2.134096,112.268273,18.696539,3,-0.719238,0.112671,0.091614,-0.679443,0.02,2.85,-12.56,0.852784,-0.305793,-12.847417,112.767311,52.54702,-12.848558,0,0,113.0070298,53.14093733,-12.85400658,FALSE,239.2845592,239.2845592,0.4,0.424938453,-16.88993737,0.240929553,-27.19883555,0.113497338
2.142961,112.549156,18.691897,3,-0.715271,0.113831,0.091614,-0.683411,-0.45,3.42,-12.61,0.320248,-0.786963,-13.045665,113.10585,52.244089,-13.043493,0,0,113.4327835,52.96680136,-13.03096095,FALSE,238.9809115,238.9809115,0.4,0.452602379,-16.88473791,0.236085912,-27.3485418,0.115611709
2.151569,113.580681,18.687255,3,-0.711304,0.115051,0.091614,-0.687317,0.06,2.83,-12.61,0.932619,-0.334667,-12.885755,113.829828,52.495789,-12.887493,0,0,113.8734437,52.83497048,-12.89689522,FALSE,238.8702495,238.8702495,0.4,0.435931063,-16.87934557,0.231258417,-27.49386242,0.117623159
2.163853,113.676415,18.691897,3,-0.707275,0.116211,0.091492,-0.691284,-0.48,3.56,-12.58,0.23065,-0.894886,-13.050139,114.384714,52.226059,-13.048347,0,0,114.480605,52.62152506,-13.03838213,FALSE,238.5863834,238.5863834,0.4,0.459617907,-16.87220077,0.223706502,-27.70116441,0.120417554
2.172678,114.144615,18.687255,3,-0.703308,0.11731,0.091248,-0.69519,-0.47,3.69,-12.59,0.132212,-0.928089,-13.09453,114.70561,51.905515,-13.094021,0,0,114.9059089,52.45479443,-13.09022234,FALSE,238.3170629,238.3170629,0.4,0.469971767,-16.87059964,0.215662625,-27.85005452,0.12235627
2.181489,114.520226,18.687255,3,-0.699341,0.118347,0.090942,-0.699036,-0.68,2.86,-12.54,0.930995,-1.176051,-12.792335,115.055176,51.651788,-12.79566,0,0,115.3268479,52.28527728,-12.81518896,FALSE,238.0330282,238.0330282,0.4,0.433362991,-16.86591568,0.206392836,-27.99868074,0.124215635
2.194088,115.462975,18.696539,3,-0.695435,0.119263,0.090454,-0.70282,-0.24,3.27,-12.5,0.543181,-0.77744,-12.888013,115.941636,51.783699,-12.886995,0,0,115.9593323,52.08985541,-12.88242594,FALSE,237.8543933,237.8543933,0.4,0.446389516,-16.85662911,0.19408682,-28.21111591,0.126738457
2.202924,116.023888,18.687255,3,-0.691589,0.120117,0.089722,-0.706543,-0.42,2.69,-12.59,1.134611,-0.988375,-12.792811,116.446521,51.742361,-12.793849,0,0,116.4000344,51.95056203,-12.79968627,FALSE,237.7179851,237.7179851,0.4,0.436700796,-16.84921662,0.186285449,-28.36002834,0.128418942
2.211633,116.023888,18.687255,3,-0.687866,0.120911,0.088806,-0.710144,0.06,3.16,-12.48,0.647069,-0.561518,-12.845434,116.652043,51.30551,-12.844866,0,0,116.8121837,51.78590251,-12.84192424,FALSE,237.4490531,237.4490531,0.4,0.445691254,-16.8414583,0.17953644,-28.50673438,0.130011913
2.223999,116.683159,18.691897,3,-0.684204,0.121704,0.087708,-0.713684,-0.09,2.85,-12.5,0.952272,-0.744385,-12.763991,117.303567,51.170098,-12.764882,0,0,117.4144284,51.57727968,-12.76997006,FALSE,237.1901295,237.1901295,0.4,0.438641097,-16.83156957,0.171462042,-28.71493471,0.132182137
2.232788,117.71563,18.687255,3,-0.680603,0.122498,0.086487,-0.717163,0.1,2.3,-12.42,1.443472,-0.565433,-12.536083,117.992275,51.41495,-12.538604,0,0,117.8599417,51.45542297,-12.55402684,FALSE,237.1335482,237.1335482,0.4,0.408568535,-16.82104148,0.165706047,-28.86282111,0.133663822
2.241663,117.62246,18.691897,3,-0.677002,0.12323,0.085083,-0.720581,0.72,2.9,-12.52,0.859064,-0.035899,-12.842876,118.234039,51.018773,-12.839523,0,0,118.2827827,51.29928665,-12.82071546,FALSE,236.9140401,236.9140401,0.4,0.451009747,-16.81082397,0.163037636,-29.01206251,0.135122622
2.25426,118.467125,18.687255,3,-0.673462,0.123962,0.083557,-0.723938,0.55,2.46,-12.45,1.253806,-0.21896,-12.638691,119.011049,51.028811,-12.640904,0,0,118.9056912,51.1080025,-12.65265595,FALSE,236.7515243,236.7515243,0.4,0.429027717,-16.79751606,0.161432406,-29.22374464,0.137166297
2.263115,118.467125,18.687255,3,-0.669922,0.124634,0.08197,-0.727295,0.75,2.44,-12.41,1.231432,-0.063609,-12.60967,119.146123,50.441586,-12.610014,0,0,119.3148131,50.93844665,-12.6129679,FALSE,236.4658499,236.4658499,0.4,0.42585877,-16.78651267,0.160181332,-29.37243793,0.138590241
2.274829,119.410759,18.696539,3,-0.666321,0.125366,0.080322,-0.730652,0.74,2.25,-12.41,1.39671,-0.104311,-12.556136,119.88993,50.498661,-12.556729,0,0,119.8864354,50.75819366,-12.56049616,FALSE,236.3003035,236.3003035,0.4,0.420859943,-16.77111964,0.159197825,-29.56898498,0.140460845
2.283677,120.15667,18.677971,3,-0.66272,0.125977,0.078613,-0.734009,0.66,1.79,-12.43,1.828582,-0.18143,-12.440581,120.491225,50.616278,-12.441861,0,0,120.3264432,50.63559457,-12.44978091,FALSE,236.2397908,236.2397908,0.4,0.405877449,-16.75685095,0.157933707,-29.71731273,0.141863835
2.292266,120.255058,18.691897,3,-0.659058,0.126526,0.076904,-0.737366,0.88,2.09,-12.33,1.472549,-0.03515,-12.449968,120.788879,50.329388,-12.449879,0,0,120.7365712,50.49614304,-12.44995365,FALSE,236.0814521,236.0814521,0.4,0.408149016,-16.74267424,0.157003604,-29.86117644,0.143216333
2.304478,120.911492,18.687255,3,-0.655396,0.127075,0.075256,-0.740723,1.2,2.09,-12.42,1.443626,0.233027,-12.56687,121.473676,50.263327,-12.565581,0,0,121.3309855,50.31535399,-12.55790017,FALSE,235.9402504,235.9402504,0.4,0.427896518,-16.72486808,0.158211841,-30.06552925,0.145141039
2.313064,120.914604,18.696539,3,-0.651672,0.127686,0.073547,-0.74408,1.51,2.47,-12.36,1.006035,0.443028,-12.646834,121.580121,49.67844,-12.645939,0,0,121.7216862,50.15276427,-12.64001099,FALSE,235.6707057,235.6707057,0.4,0.443544541,-16.71435168,0.161114145,-30.20908382,0.146511905
2.322056,121.851677,18.687255,3,-0.647949,0.128235,0.071899,-0.747375,1.68,2.26,-12.31,1.145195,0.596342,-12.56181,122.183432,49.769308,-12.562737,0,0,122.1567529,50.01857948,-12.56780959,FALSE,235.5618193,235.5618193,0.4,0.434550683,-16.70467975,0.165787152,-30.35933579,0.147981653
2.3347,122.416069,18.687255,3,-0.644165,0.128845,0.070312,-0.750671,1.37,2.24,-12.27,1.171703,0.24938,-12.490489,122.946794,49.78042,-12.491286,0,0,122.7701842,49.83554148,-12.49642105,FALSE,235.4346433,235.4346433,0.4,0.426417074,-16.69003232,0.171133807,-30.57045716,0.150111668
2.343547,122.416069,18.687255,3,-0.640259,0.129456,0.068726,-0.754028,1.95,1.88,-12.36,1.433156,0.828817,-12.544544,123.078062,49.203791,-12.543957,0,0,123.1722814,49.67357746,-12.54085201,FALSE,235.182742,235.182742,0.4,0.436300946,-16.67850973,0.175903211,-30.7180629,0.151646786
2.352212,123.075737,18.691897,3,-0.636353,0.130005,0.0672,-0.757385,2.12,1.88,-12.27,1.355013,0.958984,-12.483028,123.502598,49.093829,-12.483699,0,0,123.5769358,49.53112152,-12.48746427,FALSE,235.0132147,235.0132147,0.4,0.430235485,-16.66642999,0.183648859,-30.86252985,0.153204545
2.364782,123.544365,18.687255,3,-0.632385,0.130432,0.065735,-0.760803,1.9,1.46,-12.32,1.773606,0.780893,-12.400345,124.142972,48.968093,-12.401264,0,0,124.1669148,49.33167685,-12.40702881,FALSE,234.8009647,234.8009647,0.4,0.420691636,-16.64676662,0.194583986,-31.07190329,0.155581739
2.373464,124.299431,18.696539,3,-0.628357,0.130737,0.064331,-0.76416,1.61,1.79,-12.28,1.473936,0.40127,-12.420189,124.658591,48.996725,-12.419981,0,0,124.5805129,49.20486562,-12.41917935,FALSE,234.7054947,234.7054947,0.4,0.424841271,-16.63266904,0.199715756,-31.21636932,0.157293394
2.382371,124.577507,18.682613,3,-0.62439,0.130981,0.063049,-0.767517,1.47,1.94,-12.3,1.340528,0.199565,-12.465067,125.047579,48.823775,-12.46457,0,0,124.9971063,49.06587778,-12.4615465,FALSE,234.5650411,234.5650411,0.4,0.434189152,-16.62013482,0.202391574,-31.36446069,0.159084179
2.394952,125.141533,18.682613,3,-0.6203,0.131042,0.06189,-0.770874,1.59,1.56,-12.22,1.628635,0.378143,-12.308318,125.715411,48.737381,-12.31004,0,0,125.5905909,48.87852387,-12.32007372,FALSE,234.4091342,234.4091342,0.4,0.414180053,-16.6014573,0.206025646,-31.57344111,0.161653328
2.403846,125.897209,18.691897,3,-0.616211,0.131104,0.060913,-0.77417,0.8,1.46,-12.24,1.868944,-0.38747,-12.20434,126.254125,48.788072,-12.205504,0,0,126.0186748,48.76076947,-12.21321911,FALSE,234.3671017,234.3671017,0.4,0.398465875,-16.58590357,0.205984169,-31.7210253,0.163485535
2.412531,126.742027,18.687255,3,-0.612061,0.131165,0.06012,-0.777527,1.67,0.83,-12.24,2.259199,0.592752,-12.15895,126.95983,49.060422,-12.159463,0,0,126.4561356,48.67405248,-12.16311353,FALSE,234.4587969,234.4587969,0.4,0.391549556,-16.56797711,0.206875606,-31.86499603,0.165278379
2.425002,127.026451,18.691897,3,-0.607849,0.131165,0.059326,-0.780884,1.53,1.02,-12.21,2.082693,0.40156,-12.164149,127.609385,48.956923,-12.164098,0,0,127.0604746,48.52003784,-12.16406956,FALSE,234.4499562,234.4499562,0.4,0.394199343,-16.54090324,0.213075639,-32.07144645,0.167896985
2.433585,127.682793,18.687255,3,-0.603699,0.131165,0.058594,-0.78418,1.58,0.65,-12.15,2.379486,0.540841,-12.024432,128.071798,48.917516,-12.025971,0,0,127.4864155,48.42906432,-12.03514501,FALSE,234.5142589,234.5142589,0.4,0.374011562,-16.5217538,0.217119953,-32.21333485,0.169743169
2.445756,128.71685,18.682613,3,-0.599609,0.131287,0.057922,-0.787292,1.83,1.12,-12.25,1.891995,0.637162,-12.275185,129.041129,49.257284,-12.272439,0.024,0.024,128.1060519,48.32427926,-12.25676909,FALSE,234.3329069,234.7178665,0.4144,0.413048531,-16.4957597,0.22428869,-32.41426293,0.172429361
2.454631,128.812187,18.687255,3,-0.595581,0.131531,0.057373,-0.790344,1,0.5,-12.17,2.64292,0.011532,-11.932041,129.344714,48.952325,-11.935792,0.042,0.042,128.5478616,48.23375508,-11.95695417,FALSE,234.1337498,234.8007107,0.4252,0.363797319,-16.47563602,0.22716727,-32.56057349,0.174432697
2.463481,129.000786,18.687255,3,-0.591553,0.131775,0.057007,-0.793396,1.45,1.21,-12.27,1.890679,0.224483,-12.267619,129.578353,48.57868,-12.263962,0.024,0.024,128.975538,48.12943662,-12.24378476,FALSE,234.435626,234.8152328,0.4144,0.414189874,-16.45557484,0.228211636,-32.7062941,0.176447749
2.475571,128.623589,18.687255,3,-0.587463,0.132202,0.056763,-0.796326,0.95,1.31,-12.16,1.904302,-0.283606,-12.115165,129.610742,47.73643,-12.116805,0.002,0.002,129.5113724,47.92071192,-12.12503274,FALSE,234.4947666,234.5260608,0.4012,0.397419782,-16.43263418,0.227854237,-32.90510333,0.179204667
2.484287,129.660393,18.691897,3,-0.583496,0.13269,0.056763,-0.799194,1.73,1.08,-12.12,1.891303,0.524771,-12.132654,130.055191,47.673083,-12.132479,0,0,129.9156536,47.79765706,-12.1320693,FALSE,234.4449898,234.4449898,0.4,0.400682915,-16.41609293,0.228905235,-33.04825808,0.181195225
2.492955,130.40963,18.682613,3,-0.579468,0.133301,0.056885,-0.802002,1.17,1.18,-12.14,1.974499,-0.04246,-12.092991,130.673,47.836813,-12.093427,0,0,130.3333589,47.69767802,-12.09598909,FALSE,234.4689261,234.4689261,0.4,0.396112498,-16.39933855,0.23099557,-33.19048016,0.183188435
2.505403,130.601372,18.691897,3,-0.575439,0.133972,0.057129,-0.804749,1.32,1.11,-12.1,1.995264,0.122118,-12.057714,131.22598,47.635444,-12.058107,0,0,130.9104533,47.52599377,-12.06065047,FALSE,234.3710316,234.3710316,0.4,0.392811784,-16.37463074,0.231491362,-33.39446534,0.186066954
2.514341,131.258995,18.687255,3,-0.57135,0.134766,0.057373,-0.807556,1.29,1.83,-12.08,1.359873,-0.153877,-12.209285,131.67045,47.554879,-12.207619,0,0,131.3311045,47.41318433,-12.19788174,FALSE,234.3489878,234.3489878,0.4,0.418748663,-16.35963664,0.231349431,-33.54075478,0.188135389
2.523237,131.63784,18.696539,3,-0.5672,0.13562,0.0578,-0.810242,1.29,1.6,-12.17,1.614669,-0.086145,-12.235941,132.074133,47.420833,-12.235629,0,0,131.7469003,47.29726507,-12.23302109,FALSE,234.3105674,234.3105674,0.4,0.426996193,-16.34640587,0.230281813,-33.68623126,0.190188725
2.54359,131.541954,18.691897,3,-0.559021,0.137634,0.058716,-0.815552,1.5,1.81,-12.04,1.366457,0.026014,-12.190975,132.724678,46.782898,-12.191467,0,0,132.6494675,46.96961365,-12.19420083,FALSE,233.9330333,233.9330333,0.4,0.426037399,-16.31606844,0.22966989,-34.01862093,0.194869423
2.552941,132.480004,18.682613,3,-0.554871,0.138733,0.059265,-0.818115,1.16,2.53,-11.98,0.851033,-0.56457,-12.256567,133.016773,46.37274,-12.25585,0,0,133.0582006,46.81469229,-12.25178227,FALSE,233.7384506,233.7384506,0.4,0.439219341,-16.30570057,0.227151871,-34.17114401,0.197005294
2.562655,133.137718,18.677971,3,-0.55072,0.139893,0.059753,-0.820679,1.45,1.96,-11.99,1.289712,-0.093469,-12.166835,133.537273,46.366451,-12.167816,0,0,133.4939667,46.67068337,-12.17335217,FALSE,233.614525,233.614525,0.4,0.427739136,-16.29530297,0.223955776,-34.32948709,0.199196323
2.577628,133.421776,18.682613,3,-0.546631,0.141113,0.060242,-0.823181,1.59,2.83,-11.95,0.488148,-0.318494,-12.369296,134.162524,46.086294,-12.367076,0,0,134.1531247,46.43569948,-12.35426318,FALSE,233.3627608,233.3627608,0.4,0.465154167,-16.28199302,0.220871615,-34.57337701,0.202526524
2.585652,134.079064,18.677971,3,-0.542419,0.142334,0.060608,-0.825745,1.46,2.88,-11.99,0.534791,-0.482365,-12.396269,134.483149,45.903274,-12.395947,0,0,134.5032845,46.30649608,-12.39304631,FALSE,233.2133043,233.2133043,0.4,0.474883652,-16.27788899,0.217658569,-34.70400726,0.204285907
2.594495,134.363121,18.682613,3,-0.538269,0.143494,0.060852,-0.828247,1.71,2.98,-11.88,0.348282,-0.314335,-12.357955,134.819059,45.700601,-12.358374,0,0,134.8852819,46.16026755,-12.36064721,FALSE,233.0309212,233.0309212,0.4,0.471902878,-16.27398448,0.214135959,-34.84793537,0.206195086
2.606547,134.832268,18.677971,3,-0.534119,0.144714,0.061035,-0.830688,1.46,3.25,-11.91,0.247643,-0.683507,-12.410221,135.376605,45.560547,-12.40965,0,0,135.4106629,45.97036961,-12.4064177,FALSE,232.82508,232.82508,0.4,0.484347917,-16.27039344,0.208122964,-35.04404779,0.208739619
2.615394,135.585564,18.677971,3,-0.529968,0.145813,0.061096,-0.833191,1.86,2.77,-11.9,0.528833,-0.145576,-12.346755,135.900526,45.625522,-12.347448,0,0,135.8055053,45.8452399,-12.35133233,FALSE,232.7391537,232.7391537,0.4,0.476663425,-16.2669587,0.204455515,-35.18797677,0.210564659
2.627323,135.961937,18.677971,3,-0.525818,0.146973,0.061096,-0.835571,1.35,3.52,-11.9,0.112342,-0.96103,-12.445346,136.479571,45.522756,-12.444268,0,0,136.3322888,45.67170419,-12.43813327,FALSE,232.6005804,232.6005804,0.4,0.496697319,-16.26313441,0.197855163,-35.38200251,0.212964241
2.636007,136.90667,18.687255,3,-0.521729,0.14801,0.060913,-0.837952,1.83,2.69,-11.85,0.635553,-0.192849,-12.270542,137.122413,45.774334,-12.272456,0,0,136.737187,45.57564429,-12.28339962,FALSE,232.6378732,232.6378732,0.4,0.469426413,-16.25988705,0.192845021,-35.52321747,0.214660662
2.644606,136.810723,18.682613,3,-0.5177,0.148926,0.060486,-0.840332,1.68,3.26,-11.85,0.225404,-0.619371,-12.387018,137.335368,45.437429,-12.385756,0,0,137.1130987,45.44902301,-12.37906839,FALSE,232.529991,232.529991,0.4,0.49030399,-16.25618537,0.189352881,-35.66302032,0.216303922
2.656646,137.091759,18.677971,3,-0.513794,0.149719,0.059937,-0.842651,1.7,2.63,-11.91,0.782161,-0.349599,-12.285013,137.740374,45.120279,-12.286123,0,0,137.6315442,45.262421,-12.29222895,FALSE,232.3370597,232.3370597,0.4,0.477644898,-16.25011982,0.183519682,-35.85870828,0.218548614
2.665479,138.317101,18.682613,3,-0.509949,0.150391,0.059265,-0.844849,1.68,2.84,-11.81,0.58839,-0.49394,-12.238188,138.473161,45.487873,-12.238717,0,0,138.0448596,45.17271492,-12.24233403,FALSE,232.4090689,232.4090689,0.4,0.469904599,-16.24406679,0.179794192,-36.00221885,0.22015319
2.67403,137.567803,18.691897,3,-0.506226,0.151001,0.05835,-0.847107,1.68,3.05,-11.83,0.420673,-0.635033,-12.30831,138.338261,44.711326,-12.307543,0,0,138.3887009,45.01169681,-12.30324832,FALSE,232.1413894,232.1413894,0.4,0.485124974,-16.23975254,0.174967267,-36.14110342,0.221669973
2.686545,138.978844,18.687255,3,-0.502502,0.151611,0.057373,-0.849243,1.99,2.41,-11.79,0.807328,-0.091512,-12.170133,139.268291,45.004343,-12.171648,0,0,138.9524192,44.85967748,-12.18034562,FALSE,232.1290731,232.1290731,0.4,0.4643423,-16.23206832,0.170420912,-36.34429584,0.223831239
2.695438,139.074272,18.691897,3,-0.498901,0.1521,0.056335,-0.851379,1.82,2.7,-11.78,0.635665,-0.419595,-12.198005,139.555312,44.731436,-12.197714,0,0,139.3373922,44.73324603,-12.19665017,FALSE,232.0359429,232.0359429,0.4,0.470182873,-16.22565205,0.168148275,-36.48861909,0.225336687
2.704292,139.258904,18.682613,3,-0.495239,0.152649,0.055054,-0.853455,1.9,2.06,-11.74,1.112994,-0.070697,-12.018209,139.779375,44.401296,-12.020187,0,0,139.7099618,44.59456929,-12.03189903,FALSE,231.8851236,231.8851236,0.4,0.440452662,-16.21791074,0.165977752,-36.63224675,0.226815863
2.716643,139.827873,18.691897,3,-0.491699,0.153076,0.053772,-0.85553,1.89,2.11,-11.76,1.073975,-0.1447,-12.047721,140.354996,44.287171,-12.047417,0,0,140.2387434,44.41760229,-12.04650714,FALSE,231.7475586,231.7475586,0.4,0.446888248,-16.20440511,0.164647568,-36.83247076,0.22885764
2.725239,140.200768,18.682613,3,-0.48822,0.153503,0.052368,-0.857544,2.03,1.85,-11.74,1.205009,0.069109,-11.996431,140.645674,44.052978,-11.996993,0,0,140.599732,44.286792,-12.00027285,FALSE,231.6171239,231.6171239,0.4,0.44023913,-16.19461004,0.164322678,-36.97172173,0.230271554
2.734139,140.581505,18.691897,3,-0.484741,0.15387,0.050903,-0.859497,1.63,1.58,-11.7,1.593519,-0.167015,-11.809997,141.000161,43.900137,-11.812058,0,0,140.9734609,44.15347894,-11.82459499,FALSE,231.4910161,231.4910161,0.4,0.407377238,-16.18215659,0.163886996,-37.11579834,0.231732087
2.746768,141.146385,18.691897,3,-0.481262,0.154175,0.049377,-0.861511,2.38,1.78,-11.74,1.063253,0.319575,-12.059347,141.638476,43.852159,-12.056622,0,0,141.5114305,43.9788198,-12.0413368,FALSE,231.3756445,231.3756445,0.4,0.454796228,-16.1653804,0.164850336,-37.32005686,0.233807899
2.755634,141.427025,18.687255,3,-0.477844,0.15448,0.047852,-0.863464,1.98,1.54,-11.66,1.414261,0.075433,-11.842378,141.903886,43.564802,-11.844739,0,0,141.8778688,43.84141189,-11.85764215,FALSE,231.2292996,231.2292996,0.4,0.41997541,-16.15439758,0.166601407,-37.46333043,0.235277224
2.764485,142.181297,18.687255,3,-0.474365,0.154846,0.046326,-0.865356,2.7,1.57,-11.66,1.015513,0.620676,-12.012242,142.449571,43.669742,-12.010396,0,0,142.2613733,43.73092194,-12.00038108,FALSE,231.2012523,231.2012523,0.4,0.451524458,-16.14364462,0.169682037,-37.60626542,0.236765447
2.776851,143.027458,18.682613,3,-0.470947,0.155212,0.044861,-0.867249,2.49,1.32,-11.7,1.318746,0.539374,-11.950001,143.324034,43.93759,-11.950666,0,0,142.8122379,43.59732971,-11.95386616,FALSE,231.2554435,231.2554435,0.4,0.444648423,-16.12921189,0.176854626,-37.80580849,0.238908083
2.78546,143.31176,18.687255,3,-0.467529,0.15564,0.043396,-0.86908,2.56,1.22,-11.58,1.310872,0.621111,-11.833605,143.694725,43.825233,-11.834895,0,0,143.1931621,43.50256839,-11.84283145,FALSE,231.2846795,231.2846795,0.4,0.423458096,-16.1178927,0.181849934,-37.94461615,0.240452127
2.797464,144.062004,18.677971,3,-0.464111,0.155945,0.041992,-0.870911,2.58,1.13,-11.6,1.361456,0.649662,-11.841352,144.433269,43.957692,-11.841281,0,0,143.7314234,43.38309309,-11.8414655,FALSE,231.3802657,231.3802657,0.4,0.425507571,-16.10185339,0.189477114,-38.13799907,0.242680832
2.806068,143.876793,18.687255,3,-0.460632,0.156311,0.040588,-0.872803,2.34,0.87,-11.55,1.662014,0.568314,-11.685451,144.487867,43.384005,-11.687168,0,0,144.0932325,43.26658191,-11.69742045,FALSE,231.3111729,231.3111729,0.4,0.397468165,-16.08884642,0.194716846,-38.27648346,0.244333634
2.814938,144.726738,18.691897,3,-0.457092,0.156677,0.039307,-0.874634,2.84,1.06,-11.6,1.247664,0.828071,-11.895666,145.010383,43.456592,-11.893368,0,0,144.4886278,43.1787984,-11.88045658,FALSE,231.3824292,231.3824292,0.4,0.437788035,-16.075942,0.200909814,-38.4191343,0.246088238
2.827405,145.007469,18.687255,3,-0.453613,0.157104,0.038147,-0.876404,2.83,0.89,-11.49,1.339134,0.893531,-11.7571,145.549552,43.307931,-11.758601,0,0,145.0251145,43.02959277,-11.76656393,FALSE,231.3689997,231.3689997,0.4,0.416580021,-16.0598172,0.21164142,-38.61945255,0.248659876
2.836271,145.66494,18.682613,3,-0.450073,0.157471,0.037109,-0.878235,2.51,0.95,-11.55,1.471727,0.566685,-11.752363,146.000117,43.302687,-11.752432,0,0,145.4186789,42.94201963,-11.75345249,FALSE,231.4404038,231.4404038,0.4,0.415477838,-16.04735665,0.218114557,-38.76178365,0.250564985
2.844981,146.515556,18.687255,3,-0.446472,0.157898,0.036133,-0.880005,2.72,0.87,-11.51,1.396417,0.756674,-11.752142,146.675095,43.59248,-11.752145,0.018,0.018,145.8271382,42.88612159,-11.75224254,FALSE,231.4534794,231.643461,0.4108,0.416302273,-16.03486588,0.223877786,-38.90150173,0.252489861
2.857318,146.703941,18.687255,3,-0.442871,0.158325,0.035339,-0.881775,2.52,0.87,-11.46,1.483726,0.576991,-11.657809,147.228743,43.469253,-11.658849,0.042,0.042,146.3722373,42.76386177,-11.66505395,FALSE,231.3028237,231.739941,0.4252,0.39989095,-16.01709972,0.232104498,-39.09921428,0.255302588
2.865913,146.892357,18.687255,3,-0.43927,0.158752,0.034668,-0.883545,2.5,1.02,-11.5,1.386557,0.444747,-11.722631,147.406558,43.081589,-11.721928,0.024,0.024,146.746751,42.67342373,-11.71821368,FALSE,231.534544,231.7831642,0.4144,0.41309591,-16.00476468,0.236495417,-39.23682825,0.257316396
2.874874,147.647026,18.687255,3,-0.435608,0.15918,0.034058,-0.885315,2.83,1.09,-11.48,1.134574,0.63982,-11.802156,147.931253,43.155662,-11.801272,0.03125,0.03125,147.1536375,42.60159804,-11.79571593,FALSE,231.6058679,231.9272819,0.41875,0.431324578,-15.99346875,0.24135482,-39.38019633,0.259457404
2.887502,147.930962,18.691897,3,-0.431946,0.159607,0.033569,-0.887024,2.66,1.06,-11.44,1.23826,0.508707,-11.716685,148.47512,43.007491,-11.717617,0.046875,0.046875,147.7023169,42.46831557,-11.72274826,FALSE,231.5135726,231.9891603,0.428125,0.418086948,-15.97848668,0.248606619,-39.58206726,0.262551021
2.896397,148.023338,18.687255,3,-0.428162,0.160095,0.033142,-0.888794,2.52,1.04,-11.39,1.317246,0.39781,-11.630594,148.59452,42.511357,-11.631553,0.030875,0.030875,148.0768909,42.36047537,-11.63766409,FALSE,231.6594117,231.9706242,0.418525,0.401525928,-15.96712106,0.252638354,-39.72414535,0.264780308
2.905121,148.112084,18.673329,3,-0.424438,0.160583,0.032776,-0.890503,2.66,1.12,-11.39,1.175142,0.43694,-11.682904,148.685703,42.038827,-11.682338,0.010875,0.010875,148.4299275,42.23750761,-11.67943319,FALSE,231.7674167,231.8762445,0.406525,0.413097198,-15.95624927,0.256279533,-39.86339509,0.267000208
2.917634,148.778099,18.687255,3,-0.420654,0.161133,0.032532,-0.892212,2.58,1.21,-11.39,1.158084,0.301546,-11.679921,149.264445,41.959106,-11.679948,0,0,148.9488401,42.07972072,-11.67988358,FALSE,231.8223644,231.8223644,0.4,0.416301271,-15.94165144,0.260899871,-40.0629643,0.27023594
2.926219,149.531365,18.687255,3,-0.416931,0.161682,0.032349,-0.89386,2.65,1.27,-11.42,1.085423,0.297862,-11.738183,149.779325,42.088959,-11.737542,0,0,149.3203588,41.99368794,-11.73371026,FALSE,231.8821933,231.8821933,0.4,0.430041625,-15.93202119,0.26347283,-40.19978204,0.27248681
2.935275,149.812737,18.682613,3,-0.413147,0.162292,0.032166,-0.895508,2.37,1.23,-11.31,1.254686,0.105752,-11.552509,150.179344,42.009497,-11.554548,0,0,149.7055889,41.8947693,-11.56641078,FALSE,231.9095946,231.9095946,0.4,0.394498498,-15.92142517,0.265300394,-40.34401445,0.274881095
2.947894,150.004845,18.691897,3,-0.409424,0.162842,0.032104,-0.897095,2.47,1.21,-11.31,1.214862,0.181879,-11.574628,150.607212,41.736458,-11.574406,0,0,150.2222724,41.7339745,-11.57399758,FALSE,231.8458666,231.8458666,0.4,0.39926143,-15.90584356,0.267115202,-40.5448286,0.278240372
2.956753,150.567101,18.682613,3,-0.40564,0.163452,0.032043,-0.898743,2.69,1.41,-11.41,0.974445,0.19054,-11.765482,150.953168,41.597208,-11.763376,0,0,150.5903592,41.62972982,-11.75079129,FALSE,231.8384962,231.8384962,0.4,0.441479475,-15.89614602,0.268764832,-40.68569551,0.280614052
2.96543,151.60244,18.677971,3,-0.401855,0.164062,0.031982,-0.90033,2.73,1.49,-11.35,0.880812,0.155353,-11.734379,151.689455,41.994612,-11.734698,0.018,0.018,150.982461,41.56952526,-11.73563815,FALSE,231.8441106,232.0140574,0.4108,0.43930224,-15.88809699,0.270265488,-40.82359145,0.282952635
2.977994,151.321007,18.682613,3,-0.398132,0.164673,0.031921,-0.901855,2.71,1.62,-11.28,0.786965,0.041891,-11.686991,152.002313,41.583262,-11.687517,0,0,151.494966,41.41026345,-11.69072322,FALSE,231.9547918,231.9547918,0.4,0.432362247,-15.87762002,0.271504575,-41.02314369,0.286356035
2.986647,151.324669,18.691897,3,-0.394409,0.165344,0.03186,-0.903381,2.77,1.45,-11.25,0.868731,0.187428,-11.642514,151.967874,40.895124,-11.64301,0,0,151.827383,41.27510428,-11.64621262,FALSE,231.8031731,231.8031731,0.4,0.424898772,-15.87045665,0.272496724,-41.16050174,0.288709656
2.998605,152.171562,18.687255,3,-0.390625,0.166016,0.03186,-0.904907,2.81,1.4,-11.23,0.881048,0.237318,-11.624825,152.57441,40.91046,-11.625025,0,0,152.3129204,41.12619998,-11.62646586,FALSE,231.7567344,231.7567344,0.4,0.423378638,-15.85999472,0.27503628,-41.35021811,0.291983356
3.007359,152.641014,18.682613,3,-0.386841,0.166626,0.031738,-0.906433,2.83,1.77,-11.24,0.622636,-0.02453,-11.708605,152.970788,40.864997,-11.707684,0,0,152.6709737,41.02233218,-11.70230328,FALSE,231.7445086,231.7445086,0.4,0.443291,-15.85341309,0.275967653,-41.48902769,0.2943951
3.016254,153.115166,18.687255,3,-0.383057,0.167297,0.031677,-0.907898,2.87,1.46,-11.2,0.806966,0.206763,-11.623879,153.417371,40.870956,-11.624803,0,0,153.0392435,40.92341702,-11.62989572,FALSE,231.7607676,231.7607676,0.4,0.428392236,-15.84705494,0.276778135,-41.63001553,0.296853437
3.028497,153.868706,18.687255,3,-0.379272,0.167908,0.031555,-0.909363,2.96,1.8,-11.26,0.54414,0.006749,-11.768299,154.178771,41.053085,-11.766717,0,0,153.5553349,40.8022825,-11.75768068,FALSE,231.846592,231.846592,0.4,0.461198309,-15.83878414,0.278085148,-41.82398039,0.300250033
3.037271,153.776817,18.691897,3,-0.375549,0.168518,0.031433,-0.910828,3.15,1.43,-11.17,0.646811,0.390228,-11.669014,154.305001,40.60702,-11.670091,0,0,153.9063193,40.69040524,-11.67581652,FALSE,231.8009915,231.8009915,0.4,0.44424625,-15.83355944,0.279826686,-41.96292696,0.302697592
3.04588,153.872887,18.696539,3,-0.371887,0.169128,0.03125,-0.912231,2.7,1.66,-11.17,0.79861,-0.105544,-11.583001,154.40419,40.179608,-11.583961,0,0,154.2377724,40.56539019,-11.59012182,FALSE,231.6902004,231.6902004,0.4,0.426458991,-15.82733763,0.281052109,-42.09921129,0.305111895
3.058376,154.530937,18.691897,3,-0.368164,0.169678,0.031006,-0.913635,2.72,1.59,-11.13,0.825851,-0.057516,-11.537687,154.978906,40.125577,-11.538197,0,0,154.7334808,40.406807,-11.54170981,FALSE,231.6263058,231.6263058,0.4,0.418123827,-15.81718799,0.28003331,-42.29692629,0.308617557
3.067041,155.097099,18.691897,3,-0.364441,0.170166,0.030762,-0.915039,3.09,1.6,-11.14,0.578246,0.166669,-11.655286,155.394832,40.126495,-11.653996,0,0,155.083843,40.30761727,-11.64657242,FALSE,231.6274431,231.6274431,0.4,0.445628207,-15.81110474,0.280506215,-42.43395587,0.311046094
3.076,155.190087,18.687255,3,-0.360779,0.170654,0.030457,-0.916382,2.7,1.53,-11.06,0.866826,-0.05993,-11.454227,155.635378,39.868832,-11.456429,0,0,155.4322695,40.18710148,-11.46898377,FALSE,231.5523834,231.5523834,0.4,0.404955811,-15.80463154,0.280984352,-42.57557856,0.313561291
3.088627,155.759422,18.696539,3,-0.357117,0.171082,0.030151,-0.917786,2.75,1.75,-11.12,0.714599,-0.212906,-11.563899,156.209906,39.81297,-11.562714,0,0,155.930121,40.03054896,-11.55661709,FALSE,231.50147,231.50147,0.4,0.429688253,-15.79464722,0.279261802,-42.7750806,0.317098405
3.097456,156.321983,18.687255,3,-0.353455,0.17157,0.029785,-0.919128,3.03,1.53,-11.09,0.657861,0.116693,-11.578597,156.626137,39.808809,-11.578422,0,0,156.2849747,39.93100909,-11.5769107,FALSE,231.508203,231.508203,0.4,0.43685056,-15.78858849,0.27883707,-42.9145048,0.319562133
3.106175,156.510033,18.687255,3,-0.349731,0.171997,0.029358,-0.920471,2.99,1.91,-11.05,0.433496,-0.21647,-11.595525,156.905586,39.618311,-11.595336,0,0,156.6267998,39.82219135,-11.59409691,FALSE,231.4701711,231.4701711,0.4,0.443513657,-15.78383072,0.278402092,-43.05214476,0.321991417
3.118579,157.075798,18.687255,3,-0.346008,0.172424,0.02887,-0.921814,3.12,1.78,-11.07,0.434816,-0.061253,-11.629926,157.494899,39.596889,-11.629544,0,0,157.117732,39.67548595,-11.62717719,FALSE,231.4501685,231.4501685,0.4,0.45508407,-15.77844545,0.276679654,-43.247894,0.325434034
3.127354,157.075798,18.687255,3,-0.342285,0.172791,0.02832,-0.923157,3,1.54,-11.03,0.656415,0.020497,-11.515272,157.598355,39.133976,-11.516531,0,0,157.4466651,39.54841134,-11.52385738,FALSE,231.3376332,231.3376332,0.4,0.431971865,-15.77365767,0.276500837,-43.38632885,0.327861113
3.136333,157.737694,18.691897,3,-0.338684,0.173218,0.02771,-0.924438,2.88,1.65,-11.03,0.675274,-0.167171,-11.497583,158.029932,39.137074,-11.497792,0,0,157.7982494,39.44087473,-11.49959877,FALSE,231.3164244,231.3164244,0.4,0.428182956,-15.76767906,0.275842344,-43.52793368,0.330340858
3.148872,158.115929,18.691897,3,-0.335083,0.173523,0.0271,-0.925659,2.99,1.44,-11.03,0.725586,0.039228,-11.495493,158.569704,39.055764,-11.495519,0,0,158.2833845,39.28525403,-11.495808,FALSE,231.263375,231.263375,0.4,0.430613702,-15.75889637,0.275040206,-43.72558955,0.333794616
3.157563,158.397026,18.687255,3,-0.331482,0.173889,0.026367,-0.926941,2.81,1.43,-10.99,0.846573,-0.090997,-11.401594,158.808323,38.805854,-11.402629,0,0,158.6134232,39.1707372,-11.40882211,FALSE,231.1983643,231.1983643,0.4,0.410785894,-15.75206455,0.274815244,-43.86252043,0.336184013
3.1695,159.059532,18.691897,3,-0.327942,0.174194,0.025635,-0.928162,2.91,1.56,-10.97,0.688309,-0.156317,-11.434362,159.416718,38.861232,-11.434013,0,0,159.079191,39.03318189,-11.43240258,FALSE,231.1907142,231.1907142,0.4,0.419787578,-15.7429036,0.27333915,-44.05049814,0.339455672
3.178105,159.340141,18.687255,3,-0.324463,0.1745,0.024902,-0.929321,2.84,1.35,-10.91,0.843382,-0.057118,-11.322612,159.706214,38.697948,-11.32384,0,0,159.4110549,38.93006368,-11.33103515,FALSE,231.1684758,231.1684758,0.4,0.39564701,-15.7363135,0.272420846,-44.18593748,0.341803805
3.186652,159.906548,18.687255,3,-0.321045,0.174805,0.024109,-0.930481,2.86,1.65,-10.93,0.657219,-0.311544,-11.394649,160.152405,38.751593,-11.393869,0,0,159.7512162,38.84365115,-11.38976854,FALSE,231.2124272,231.2124272,0.4,0.412754899,-15.72990069,0.270845369,-44.32040834,0.344125453
3.199057,159.91021,18.696539,3,-0.317566,0.175049,0.023254,-0.931641,3.02,1.17,-10.89,0.804289,0.139967,-11.332027,160.49178,38.439649,-11.332709,0,0,160.2166288,38.6815009,-11.33645694,FALSE,231.1233098,231.1233098,0.4,0.402176593,-15.72083568,0.269781162,-44.51548153,0.347478689
3.207927,160.380516,18.691897,3,-0.31427,0.175354,0.0224,-0.932739,3.08,1.59,-10.93,0.527323,-0.192446,-11.452706,160.767634,38.242574,-11.451384,0,0,160.5506714,38.56932011,-11.44378736,FALSE,231.0747044,231.0747044,0.4,0.432962649,-15.71492998,0.269548418,-44.65489915,0.349870616
3.216794,160.661675,18.687255,3,-0.310974,0.175659,0.021484,-0.933777,3.09,0.99,-10.85,0.835436,0.270304,-11.29068,161.044956,38.061342,-11.292451,0,0,160.8811384,38.4531436,-11.30242642,FALSE,231.0097533,231.0097533,0.4,0.397894645,-15.70888819,0.269893602,-44.79421665,0.352262232
3.229404,161.701653,18.691897,3,-0.307739,0.175964,0.020508,-0.934814,3.2,1.41,-10.8,0.4928,-0.032983,-11.341244,161.905306,38.395844,-11.340707,0,0,161.381413,38.33247384,-11.33826591,FALSE,231.1002449,231.1002449,0.4,0.410019107,-15.70051366,0.27138991,-44.99225293,0.355675024
3.238035,162.078484,18.691897,3,-0.304504,0.176331,0.01947,-0.935852,3.35,0.85,-10.86,0.71385,0.470103,-11.364599,162.336951,38.449411,-11.364336,0,0,161.7295082,38.25828056,-11.36257872,FALSE,231.1968575,231.1968575,0.4,0.418159146,-15.69530637,0.273276302,-45.12774159,0.358025532
3.246819,161.701653,18.691897,3,-0.301208,0.176636,0.018433,-0.93689,3.12,0.91,-10.92,0.868486,0.25211,-11.357431,162.306617,37.865213,-11.357507,0,0,162.0476689,38.13512892,-11.35782594,FALSE,231.0983816,231.0983816,0.4,0.419575913,-15.68835675,0.276448261,-45.26557864,0.360439922
3.259379,162.456902,18.691897,3,-0.297913,0.17688,0.017395,-0.937866,2.78,0.87,-10.84,1.115812,0.066923,-11.168758,162.868558,37.833492,-11.170838,0,0,162.522422,37.98817514,-11.18326332,FALSE,231.0772716,231.0772716,0.4,0.375142114,-15.67589535,0.278451789,-45.46254614,0.363924694
3.268259,162.834282,18.691897,3,-0.294617,0.177124,0.016296,-0.938904,3.03,0.64,-10.84,1.045408,0.365638,-11.219155,163.184147,37.703977,-11.218623,0,0,162.858109,37.88722387,-11.21640139,FALSE,231.0731421,231.0731421,0.4,0.386244745,-15.66629954,0.280372359,-45.60170549,0.366405873
3.277106,163.022453,18.691897,3,-0.291382,0.177429,0.015259,-0.93988,2.73,0.82,-10.88,1.186297,0.016801,-11.184458,163.423664,37.480178,-11.184834,0,0,163.1846682,37.77705562,-11.1869087,FALSE,231.0296244,231.0296244,0.4,0.380353835,-15.65642759,0.282064078,-45.74026157,0.368893811
3.289566,163.211144,18.691897,3,-0.288208,0.177673,0.014221,-0.940857,2.85,0.72,-10.82,1.122454,0.141295,-11.15498,163.766417,37.186182,-11.155309,0,0,163.6330572,37.60884412,-11.15742958,FALSE,230.9145033,230.9145033,0.4,0.375547584,-15.64204407,0.283049016,-45.93525105,0.372414465
3.298172,163.774132,18.682613,3,-0.284973,0.177979,0.013184,-0.941772,2.93,0.76,-10.81,1.032237,0.122052,-11.177574,164.090511,37.096703,-11.177329,0,0,163.9475275,37.50103726,-11.17602852,FALSE,230.8688045,230.8688045,0.4,0.382923546,-15.63277244,0.284182198,-46.06982659,0.374855261
3.307055,164.343926,18.691897,3,-0.281799,0.178406,0.012207,-0.942688,2.83,0.64,-10.81,1.172538,0.139526,-11.130159,164.566249,37.190345,-11.130679,0,0,164.2832698,37.40588785,-11.13367811,FALSE,230.8873056,230.8873056,0.4,0.372942021,-15.62297993,0.285343997,-46.20864901,0.377384812
3.319705,164.906975,18.682613,3,-0.278687,0.178772,0.01123,-0.943542,3.04,0.52,-10.76,1.052318,0.327717,-11.138893,165.233648,37.296804,-11.138802,0,0,164.7628881,37.27490093,-11.13849291,FALSE,230.9311813,230.9311813,0.4,0.376933826,-15.60890771,0.288299309,-46.4061907,0.381013106
3.32856,165.188255,18.677971,3,-0.275574,0.17926,0.010254,-0.944397,3.07,0.66,-10.74,0.949178,0.196429,-11.147596,165.537075,37.158244,-11.147499,0,0,165.0971373,37.18246036,-11.14689761,FALSE,230.9586054,230.9586054,0.4,0.381206911,-15.60004609,0.290619966,-46.54436834,0.383576271
3.340445,165.666649,18.691897,3,-0.272461,0.17981,0.009277,-0.94519,3.3,0.4,-10.76,0.910216,0.504536,-11.213598,166.053235,37.125238,-11.212869,0,0,165.5444837,37.05830317,-11.20848074,FALSE,230.9947536,230.9947536,0.4,0.401443375,-15.58899664,0.29478545,-46.72970923,0.387055043
3.349355,166.044121,18.691897,3,-0.269348,0.18042,0.008301,-0.945984,3.32,0.43,-10.71,0.863399,0.461491,-11.178252,166.37828,37.017774,-11.178633,0,0,165.8824343,36.96948623,-11.18057115,FALSE,231.039184,231.039184,0.4,0.395324402,-15.58109519,0.2990891,-46.86857199,0.389700754
3.358101,165.762322,18.696539,3,-0.266296,0.18103,0.007385,-0.946716,3.19,0.49,-10.75,0.952729,0.310367,-11.17921,166.345084,36.446121,-11.179204,0,0,166.1840156,36.84311815,-11.17931443,FALSE,230.9240606,230.9240606,0.4,0.39767592,-15.57315326,0.302464435,-47.00480952,0.392331347
3.370313,165.951592,18.696539,3,-0.263306,0.181763,0.00647,-0.947449,3.39,0.35,-10.7,0.85155,0.504873,-11.18593,166.561009,36.024877,-11.185856,0,0,166.600117,36.66215431,-11.18542246,FALSE,230.7452997,230.7452997,0.4,0.403402901,-15.56213633,0.307442291,-47.1949216,0.396055438
3.378905,167.36129,18.682613,3,-0.260254,0.182495,0.005615,-0.94812,3.66,0.46,-10.65,0.570129,0.517823,-11.244399,167.334937,36.614031,-11.243754,0,0,166.9362411,36.59491857,-11.23987431,FALSE,230.8609712,230.8609712,0.4,0.420915733,-15.5560288,0.311835793,-47.32860523,0.398715857
3.38763,166.895378,18.696539,3,-0.257202,0.183228,0.004822,-0.948792,3.7,0.1,-10.65,0.718988,0.819263,-11.222028,167.399721,36.185012,-11.222268,0,0,167.2378146,36.47371688,-11.22339717,FALSE,230.7659225,230.7659225,0.4,0.418835071,-15.55040503,0.317668831,-47.46430705,0.40146207
3.400202,168.213707,18.687255,3,-0.254211,0.184021,0.004028,-0.949463,3.76,0.25,-10.62,0.593266,0.690588,-11.231894,168.326113,36.626909,-11.231788,0.024,0.024,167.720549,36.36637012,-11.23124211,FALSE,230.7588519,230.8982069,0.4144,0.423649819,-15.5421562,0.327159754,-47.65975489,0.405515463
3.409091,168.49453,18.682613,3,-0.251282,0.184753,0.003296,-0.950134,3.91,0.04,-10.62,0.577391,0.91729,-11.264982,168.749164,36.67341,-11.264616,0.042,0.042,168.0651273,36.29573677,-11.26239347,FALSE,230.7710079,231.0126197,0.4252,0.434622214,-15.53695321,0.334305968,-47.79788599,0.408455347
3.417907,168.683861,18.682613,3,-0.248291,0.185547,0.002625,-0.950745,3.45,0.21,-10.6,0.867653,0.524302,-11.103102,169.03424,36.525075,-11.104882,0.06,0.06,168.3990595,36.21582641,-11.11532286,FALSE,230.7449241,231.0865666,0.436,0.392337671,-15.53058346,0.340660505,-47.93483169,0.4114306
3.430337,168.407189,18.696539,3,-0.245361,0.186279,0.001953,-0.951355,4.01,0.15,-10.57,0.437853,0.816121,-11.268074,169.123354,35.928097,-11.266276,0.036,0.036,168.8270157,36.04876948,-11.25635492,FALSE,230.770304,230.9724196,0.4216,0.438765887,-15.52246974,0.348991234,-48.12782642,0.415716785
3.439118,170.006066,18.682613,3,-0.242432,0.186951,0.001465,-0.951965,3.97,0.23,-10.6,0.448922,0.700393,-11.290759,169.951519,36.596661,-11.290489,0.054,0.054,169.1847403,36.00579168,-11.28811951,FALSE,230.889786,231.1909896,0.4324,0.44947308,-15.51857635,0.355649489,-48.26411213,0.41881051
3.44795,169.535851,18.687255,3,-0.239502,0.187683,0.000977,-0.952576,4.01,0.14,-10.5,0.428153,0.782823,-11.205061,170.033705,36.178665,-11.206003,0.074,0.074,169.5039164,35.90831204,-11.21143326,FALSE,230.7873018,231.1950135,0.4444,0.428470874,-15.51470319,0.362199371,-48.40115509,0.421980531
3.468508,169.917687,18.696539,3,-0.233521,0.188965,0.000366,-0.953796,3.83,0.63,-10.51,0.371248,0.22519,-11.195399,170.707066,35.864108,-11.195516,0.114,0.114,170.2238385,35.65607089,-11.19662916,FALSE,230.4932473,231.1024756,0.4684,0.429964131,-15.50648615,0.372560736,-48.7200219,0.42953313
3.477804,170.761406,18.682613,3,-0.230469,0.189514,0.000122,-0.954468,4.03,0.18,-10.55,0.425357,0.693164,-11.265653,171.072147,35.825368,-11.264881,0.134,0.134,170.5649883,35.56581479,-11.26035748,FALSE,230.4461177,231.1539811,0.4804,0.452010372,-15.50278353,0.376829246,-48.86415298,0.433016295
3.487408,170.858177,18.687255,3,-0.227478,0.190063,0,-0.955078,3.8,0.63,-10.48,0.398503,0.180104,-11.156908,171.290802,35.520198,-11.158098,0.114,0.114,170.9036912,35.45454572,-11.16484466,FALSE,230.5396801,231.1363832,0.4684,0.424897836,-15.49882735,0.381022679,-49.01302272,0.436655499
3.500441,171.609368,18.677971,3,-0.224426,0.190613,-0.000122,-0.955688,4.09,0.52,-10.45,0.202496,0.390099,-11.225349,171.938705,35.634327,-11.224608,0.136,0.136,171.3769213,35.32551016,-11.2207071,FALSE,230.4968493,231.1974984,0.4816,0.44565505,-15.49491094,0.384738407,-49.21499342,0.441645582
3.509186,171.706139,18.682613,3,-0.221313,0.19104,-0.000244,-0.956299,3.58,0.34,-10.49,0.719909,0.316412,-11.061355,172.114377,35.324127,-11.063154,0.118,0.118,171.6864351,35.2288843,-11.07358051,FALSE,230.5960991,231.1991666,0.4708,0.401369167,-15.49087772,0.387827626,-49.35047878,0.445023627
3.518309,171.79821,18.677971,3,-0.218079,0.191467,-0.000305,-0.95697,3.89,0.41,-10.44,0.418381,0.374239,-11.134578,172.252987,34.977368,-11.133791,0.098,0.098,171.9971029,35.1138997,-11.12989827,FALSE,230.6483549,231.144348,0.4588,0.422008498,-15.48568541,0.39097803,-49.49177837,0.448576149
3.530784,172.181175,18.687255,3,-0.214844,0.191895,-0.000427,-0.957642,3.62,0.48,-10.44,0.617887,0.183873,-11.041438,172.646762,34.787019,-11.042456,0.074,0.074,172.421796,34.95814738,-11.04822469,FALSE,230.706002,231.075447,0.4444,0.39943076,-15.47922169,0.394459254,-49.68492198,0.453475314
3.539399,172.554741,18.677971,3,-0.211609,0.192261,-0.000488,-0.958252,4.11,0.28,-10.35,0.259913,0.559272,-11.122612,172.89257,34.612202,-11.121729,0.056,0.056,172.7143119,34.85175739,-11.116905,FALSE,230.7547663,231.0317812,0.4336,0.424163722,-15.47544057,0.397660351,-49.81825919,0.456887369
3.551386,172.93615,18.687255,3,-0.208435,0.192566,-0.000549,-0.958862,3.46,0.46,-10.41,0.755572,0.115695,-10.952926,173.33199,34.513385,-10.954786,0.034,0.034,173.1216642,34.70558699,-10.96550649,FALSE,230.8125431,230.9785485,0.4204,0.378192113,-15.46935426,0.401705766,-50.00372681,0.46167837
3.560214,173.02874,18.682613,3,-0.205322,0.192871,-0.000549,-0.959473,4.05,0.24,-10.43,0.35651,0.538047,-11.172628,173.460099,34.159199,-11.170227,0.016,0.016,173.408042,34.58216472,-11.15673762,FALSE,230.7999425,230.8771947,0.4096,0.443933079,-15.46444553,0.404591383,-50.14026861,0.465237365
3.569079,173.68853,18.677971,3,-0.202332,0.193176,-0.000549,-0.960083,3.54,0.84,-10.37,0.531659,-0.218248,-10.974696,173.894644,34.232743,-10.976851,0,0,173.7129217,34.48169501,-10.98866225,FALSE,230.8672439,230.8672439,0.4,0.390796828,-15.46050872,0.406008892,-50.27734347,0.468830351
3.581352,174.07,18.687255,3,-0.199341,0.19342,-0.00061,-0.960632,3.8,0.52,-10.39,0.44585,0.162427,-11.065121,174.415666,34.22153,-11.064148,0,0,174.1320808,34.3424239,-11.05925508,FALSE,230.8511688,230.8511688,0.4,0.417568857,-15.45451024,0.405666347,-50.46705348,0.473811196
3.5902,174.444664,18.677971,3,-0.196411,0.193665,-0.000549,-0.961182,3.68,0.94,-10.34,0.372479,-0.276242,-11.005724,174.73487,34.148567,-11.006368,0,0,174.4359576,34.24521229,-11.00983091,FALSE,230.8520679,230.8520679,0.4,0.403328756,-15.45088995,0.405162829,-50.60377897,0.477398304
3.598796,174.444664,18.677971,3,-0.193665,0.193909,-0.000549,-0.961731,3.74,0.25,-10.32,0.575285,0.375111,-10.958156,174.860165,33.836861,-10.958687,0,0,174.7160337,34.13196312,-10.96212051,FALSE,230.7800315,230.7800315,0.4,0.389864991,-15.44681646,0.405587768,-50.73657731,0.48088291
3.611213,174.919274,18.682613,3,-0.19104,0.194092,-0.000488,-0.962219,3.56,0.73,-10.3,0.544625,-0.142136,-10.907797,175.313753,33.74283,-10.908357,0,0,175.1282489,33.98139751,-10.91196471,FALSE,230.7255291,230.7255291,0.4,0.376204583,-15.4398635,0.407034193,-50.92833726,0.485928074
3.619717,175.107689,18.682613,3,-0.188477,0.194336,-0.000488,-0.962646,4.09,0.86,-10.24,0.026903,-0.075253,-11.05977,175.480662,33.47451,-11.058102,0,0,175.4017714,33.86828562,-11.04843036,FALSE,230.6494995,230.6494995,0.4,0.425621963,-15.43743336,0.406109855,-51.05962753,0.489385562
3.628826,175.393425,18.687255,3,-0.185852,0.19458,-0.00061,-0.963135,3.48,1.2,-10.28,0.444568,-0.627758,-10.892084,175.734669,33.310963,-10.893913,0,0,175.6944538,33.74717872,-10.90407891,FALSE,230.5689409,230.5689409,0.4,0.378715056,-15.43528605,0.402907992,-51.20023733,0.493070234
3.641558,176.430718,18.682613,3,-0.183167,0.194763,-0.000671,-0.963623,3.86,1.16,-10.28,0.137787,-0.467448,-11.031183,176.562008,33.671012,-11.029671,0.024,0.024,176.1382661,33.62845289,-11.02143155,FALSE,230.5434986,230.6478753,0.4144,0.422302812,-15.43157878,0.39593591,-51.39673579,0.498155674
3.650383,176.712303,18.677971,3,-0.18042,0.195007,-0.000793,-0.96405,3.97,1.08,-10.25,0.065585,-0.366759,-11.038591,176.946112,33.704081,-11.038493,0.04,0.04,176.4481263,33.54931047,-11.03727452,FALSE,230.5429169,230.7150733,0.424,0.429846493,-15.4306814,0.392254972,-51.53291552,0.501633567
3.659072,176.620171,18.682613,3,-0.177612,0.195251,-0.001038,-0.964539,3.99,0.87,-10.23,0.116894,-0.179658,-11.012903,177.049936,33.360236,-11.013185,0.02,0.02,176.7334481,33.44570772,-11.01477279,FALSE,230.5981451,230.6834181,0.412,0.42458362,-15.42988862,0.389881063,-51.66698926,0.505031557
3.671576,177.186516,18.682613,3,-0.174866,0.195435,-0.001404,-0.965027,3.89,1.02,-10.25,0.161101,-0.375336,-11.003137,177.545458,33.319803,-11.003247,0.042,0.042,177.1525343,33.3103302,-11.0040297,FALSE,230.5134907,230.6894827,0.4252,0.424224865,-15.42815059,0.386411241,-51.85991372,0.509884936
3.680235,177.472283,18.687255,3,-0.172119,0.195557,-0.001892,-0.965454,3.9,0.96,-10.25,0.17356,-0.337254,-11.002263,177.791049,33.161897,-11.002274,0.024,0.024,177.4420965,33.2171098,-11.00239854,FALSE,230.5957038,230.6954134,0.4144,0.426026504,-15.42670168,0.383326082,-51.99349981,0.513217514
3.692209,177.85128,18.687255,3,-0.169373,0.195618,-0.002441,-0.965942,3.84,0.86,-10.18,0.230663,-0.28043,-10.908062,178.222333,33.076442,-10.9091,0.046875,0.046875,177.8396464,33.0862534,-10.91529951,FALSE,230.5044298,230.6958879,0.428125,0.398037199,-15.42428159,0.379628008,-52.17820464,0.51778532
3.701106,178.22451,18.677971,3,-0.166748,0.195557,-0.003052,-0.966431,3.77,0.66,-10.19,0.355437,-0.137442,-10.878417,178.517449,32.981505,-10.878755,0.046875,0.046875,178.1380011,32.99508352,-10.88124663,FALSE,230.5288277,230.7183314,0.428125,0.387909013,-15.42167433,0.377769105,-52.31542288,0.521154601
3.709988,178.417656,18.687255,3,-0.164062,0.195557,-0.003784,-0.966858,3.93,0.66,-10.16,0.201284,-0.109741,-10.911157,178.752209,32.809058,-10.9108,0.028875,0.028875,178.4300058,32.89757657,-10.90886227,FALSE,230.6002525,230.7159189,0.417325,0.400271176,-15.41920193,0.376671365,-52.45238721,0.524505071
3.722116,178.606651,18.687255,3,-0.161377,0.195496,-0.004639,-0.967346,3.59,0.53,-10.14,0.524672,-0.11888,-10.756375,179.064885,32.574029,-10.758077,0.004875,0.004875,178.8174067,32.75095474,-10.76807384,FALSE,230.6426615,230.6619137,0.402925,0.352119374,-15.41479973,0.375285007,-52.6393646,0.529064935
3.730729,179.169945,18.677971,3,-0.158691,0.195374,-0.005554,-0.967773,3.87,0.52,-10.21,0.302702,-0.056322,-10.926857,179.406037,32.56853,-10.924997,0,0,179.1025236,32.6626897,-10.91467514,FALSE,230.682069,230.682069,0.4,0.408196762,-15.41123665,0.3745305,-52.77211692,0.532294015
3.739453,179.552117,18.687255,3,-0.156067,0.195312,-0.006592,-0.968201,3.5,0.36,-10.16,0.649728,-0.042763,-10.732236,179.774228,32.583482,-10.73436,0.018,0.018,179.3950253,32.57820942,-10.74623275,FALSE,230.6519022,230.7215072,0.4108,0.347750909,-15.40708215,0.374098291,-52.90654643,0.535559534
3.751908,180.309197,18.687255,3,-0.153503,0.195129,-0.007629,-0.968628,3.66,0.05,-10.14,0.585966,0.272547,-10.761015,180.489523,32.827613,-10.760721,0.042,0.042,179.8246793,32.47747365,-10.7598809,FALSE,230.689926,230.8500913,0.4252,0.355012416,-15.39938686,0.375529271,-53.09839371,0.54022784
3.760825,180.115471,18.677971,3,-0.151001,0.194946,-0.008728,-0.969055,3.52,0.21,-10.17,0.661951,0.047018,-10.74349,180.564453,32.412211,-10.74368,0.06,0.06,180.1139315,32.3816439,-10.74474751,FALSE,230.6277303,230.8536315,0.436,0.351427222,-15.39382302,0.376954051,-53.23568524,0.543582786
3.76968,180.215996,18.691897,3,-0.148621,0.194763,-0.009888,-0.969482,3.74,0.06,-10.11,0.47954,0.2269,-10.766709,180.64936,32.051344,-10.766455,0.042,0.042,180.3913634,32.2746438,-10.76502411,FALSE,230.6563838,230.8128504,0.4252,0.361435069,-15.38876907,0.378166823,-53.37197517,0.546926084
3.782208,180.783562,18.691897,3,-0.146362,0.194519,-0.011047,-0.969849,3.43,0.26,-10.17,0.706007,-0.086774,-10.712391,181.127958,32.013921,-10.712987,0.046875,0.046875,180.7943077,32.13909483,-10.71642902,FALSE,230.642072,230.8138972,0.428125,0.345943667,-15.38134281,0.379044573,-53.56471915,0.551669256
3.790828,181.253777,18.687255,3,-0.144165,0.194397,-0.012207,-0.970215,3.72,-0.19,-10.13,0.555067,0.397307,-10.771531,181.476631,32.029812,-10.770886,0.064875,0.064875,181.0797839,32.05847941,-10.76730357,FALSE,230.6258198,230.8609993,0.438925,0.367200028,-15.37590758,0.38038297,-53.6972829,0.554942389
3.799685,181.258507,18.696539,3,-0.141968,0.194275,-0.013367,-0.97052,3.37,0.19,-10.15,0.75598,-0.09435,-10.669348,181.633699,31.770917,-10.670467,0.046875,0.046875,181.3582559,31.9564566,-10.67686316,FALSE,230.6702825,230.8384904,0.428125,0.334635629,-15.37010161,0.381724615,-53.8334416,0.558317382
3.812196,181.728722,18.691897,3,-0.139709,0.194153,-0.014587,-0.970886,3.47,0.01,-10.13,0.701697,0.075605,-10.684577,182.085497,31.705501,-10.684421,0.070875,0.070875,181.7558459,31.8210208,-10.68398519,FALSE,230.5879692,230.8377264,0.442525,0.340263,-15.36098311,0.381607355,-54.0256799,0.563092406
3.821093,182.388542,18.687255,3,-0.137329,0.194092,-0.015808,-0.971191,3.42,-0.26,-10.13,0.812698,0.290279,-10.660024,182.54332,31.87225,-10.660293,0.088875,0.088875,182.0554427,31.74856601,-10.6618623,FALSE,230.6147698,230.9247766,0.453325,0.333165511,-15.35424632,0.38323499,-54.1623166,0.566494807
3.82998,182.485436,18.691897,3,-0.134949,0.194031,-0.017029,-0.971497,3.75,-0.27,-10.15,0.521767,0.3511,-10.805641,182.792634,31.73189,-10.804039,0.108875,0.108875,182.3443104,31.66322895,-10.79461028,FALSE,230.588541,230.9638117,0.465325,0.387162094,-15.34831663,0.386084958,-54.29874343,0.56991328
3.842514,182.767174,18.687255,3,-0.132568,0.194031,-0.018311,-0.971802,3.62,-0.76,-10.13,0.752384,0.758073,-10.731154,183.174737,31.57892,-10.731957,0.130875,0.130875,182.7416306,31.5297319,-10.73602237,FALSE,230.5282595,230.9714021,0.478525,0.367214473,-15.34033152,0.393036145,-54.49106919,0.574796032
3.851131,182.767174,18.687255,3,-0.130066,0.194092,-0.019592,-0.972107,3.58,-0.49,-10.1,0.698565,0.45641,-10.694384,183.209594,31.133206,-10.694798,0.112875,0.112875,183.0010629,31.42140754,-10.6975785,FALSE,230.5376298,230.9155782,0.467725,0.354400536,-15.33408011,0.398268745,-54.6232299,0.578205369
3.863096,183.431267,18.691897,3,-0.127563,0.194214,-0.020874,-0.972412,3.44,-1,-10.12,0.956121,0.879869,-10.656443,183.710124,31.173231,-10.656866,0.136875,0.136875,183.3789223,31.29702553,-10.65959892,FALSE,230.4819553,230.9325395,0.482125,0.341937467,-15.32418095,0.406263034,-54.80664294,0.58301848
3.871893,183.52343,18.687255,3,-0.125183,0.194397,-0.022095,-0.972656,3.79,-1.09,-10.06,0.638633,1.023163,-10.737841,183.875469,30.919167,-10.736948,0.118875,0.118875,183.6475285,31.19477399,-10.73183826,FALSE,230.5181214,230.9053349,0.471325,0.373447803,-15.31716642,0.414633521,-54.94141891,0.586629194
3.880606,183.52343,18.687255,3,-0.122925,0.194519,-0.023254,-0.9729,3.52,-1.07,-10.02,0.853434,0.914082,-10.60057,183.940788,30.559965,-10.602073,0.100875,0.100875,183.8998802,31.0759678,-10.61064092,FALSE,230.4905181,230.8149775,0.460525,0.326834071,-15.31066623,0.423073128,-55.07484906,0.590278663
3.893139,184.09539,18.696539,3,-0.120605,0.194763,-0.024353,-0.973083,3.93,-1.08,-10.03,0.489382,0.985811,-10.770342,184.412661,30.535427,-10.768488,0.076875,0.076875,184.2791636,30.93028904,-10.75808972,FALSE,230.532015,230.7754963,0.446125,0.390679251,-15.30225148,0.434978808,-55.26668491,0.595655645
3.901984,184.469353,18.687255,3,-0.118408,0.195007,-0.025391,-0.973328,3.56,-1.14,-10.05,0.838889,0.931168,-10.649207,184.715283,30.490179,-10.650521,0.058875,0.058875,184.5483154,30.82985343,-10.6575605,FALSE,230.5723681,230.7568781,0.435325,0.351533447,-15.2963772,0.443456648,-55.40200735,0.599540526
3.910843,184.469353,18.687255,3,-0.116272,0.195374,-0.026245,-0.97345,3.59,-0.95,-10.01,0.752487,0.732564,-10.624859,184.842631,30.208125,-10.625142,0.040875,0.040875,184.8040923,30.7128858,-10.62736787,FALSE,230.5519974,230.6784861,0.424525,0.341597887,-15.2893282,0.450826148,-55.53748673,0.603501752
3.923085,185.318474,18.682613,3,-0.114258,0.19574,-0.026978,-0.973633,3.59,-0.99,-10.02,0.766561,0.749084,-10.635813,185.487776,30.422343,-10.635695,0.064875,0.064875,185.1860202,30.59180783,-10.63516509,FALSE,230.5182207,230.7156026,0.438925,0.347591722,-15.28003011,0.459895316,-55.72460177,0.609076278
3.931699,185.322655,18.691897,3,-0.112366,0.196167,-0.027527,-0.973755,3.62,-0.75,-10.02,0.687808,0.504211,-10.646157,185.653531,30.189431,-10.646042,0.046875,0.046875,185.443045,30.4920414,-10.6453137,FALSE,230.5482488,230.6893511,0.428125,0.354173016,-15.27376614,0.465293257,-55.85619697,0.613061065
3.940507,185.9869,18.696539,3,-0.110596,0.196594,-0.027954,-0.973816,3.64,-0.84,-9.93,0.661459,0.589713,-10.57235,186.11187,30.346748,-10.573162,0.064875,0.064875,185.7244555,30.41598404,-10.57794778,FALSE,230.56216,230.7553173,0.438925,0.327240323,-15.26782397,0.470110899,-55.99070213,0.617180585
3.953121,186.264549,18.682613,3,-0.108887,0.197144,-0.028259,-0.973877,3.43,-0.61,-9.97,0.821412,0.306932,-10.524668,186.582439,30.323438,-10.525202,0.088875,0.088875,186.1148898,30.29280381,-10.52875563,FALSE,230.5376962,230.7977668,0.453325,0.308774325,-15.2584715,0.475766039,-56.18323148,0.623146231
3.962022,186.550591,18.687255,3,-0.107361,0.197693,-0.028381,-0.973938,3.56,-0.69,-9.98,0.734883,0.40211,-10.585276,186.833411,30.201525,-10.584614,0.106875,0.106875,186.3921374,30.20978329,-10.58093975,FALSE,230.5320804,230.8411396,0.464125,0.333015221,-15.25154521,0.47892163,-56.31901631,0.627395068
3.970923,186.457878,18.691897,3,-0.106018,0.198364,-0.028381,-0.973938,3.48,-0.69,-9.98,0.818814,0.381288,-10.553228,186.884392,29.81834,-10.553574,0.088875,0.088875,186.6508676,30.102617,-10.55535405,FALSE,230.544767,230.7987603,0.453325,0.3242597,-15.24463048,0.482408143,-56.45473954,0.631673467
3.983265,187.117485,18.687255,3,-0.104614,0.199036,-0.02832,-0.973999,3.72,-0.45,-9.93,0.543906,0.194274,-10.597764,187.386915,29.857513,-10.597278,0.112875,0.112875,187.0262281,29.97852391,-10.5945103,FALSE,230.5095902,230.8265596,0.467725,0.344125636,-15.23622113,0.485959936,-56.64283687,0.637649266
3.992098,187.025261,18.691897,3,-0.103149,0.199768,-0.028259,-0.973999,3.44,-0.57,-9.95,0.84261,0.251563,-10.506564,187.440041,29.452617,-10.507563,0.094875,0.094875,187.2778233,29.8678943,-10.51331125,FALSE,230.5061587,230.769307,0.456925,0.310797288,-15.23009759,0.487928975,-56.77739137,0.641950446
4.003819,187.307152,18.687255,3,-0.101562,0.2005,-0.028137,-0.973999,3.68,-0.33,-9.94,0.586444,0.059553,-10.588071,187.707319,29.22688,-10.587184,0.070875,0.070875,187.6116888,29.72380274,-10.58233543,FALSE,230.5089045,230.7023318,0.442525,0.344616512,-15.22172262,0.48975227,-56.95585426,0.647680147
4.012403,187.593224,18.691897,3,-0.099731,0.201355,-0.028015,-0.973999,3.57,-0.44,-9.86,0.693689,0.149703,-10.471582,187.891565,29.040012,-10.472856,0.054875,0.054875,187.8532735,29.6154107,-10.48007902,FALSE,230.495538,230.6434502,0.432925,0.301182245,-15.21622829,0.490650397,-57.08649395,0.651888035
4.021285,188.160668,18.691897,3,-0.0979,0.202209,-0.027954,-0.97406,3.67,-0.52,-9.86,0.635343,0.240388,-10.5118,188.304743,29.147985,-10.511371,0.034875,0.034875,188.1180561,29.52517765,-10.50936636,FALSE,230.5657192,230.658802,0.420925,0.316270414,-15.21032605,0.492382791,-57.22161828,0.656253686
4.033779,188.160668,18.691897,3,-0.096069,0.203186,-0.027893,-0.973999,3.65,-0.36,-9.87,0.64416,0.072853,-10.509444,188.584483,28.913048,-10.509466,0.010875,0.010875,188.4703775,29.37273721,-10.50943805,FALSE,230.5626562,230.5911769,0.406525,0.319594488,-15.202333,0.494339608,-57.41160616,0.662417741
4.042638,189.102287,18.682613,3,-0.094238,0.204102,-0.027771,-0.973999,3.79,-0.6,-9.87,0.582698,0.327558,-10.568537,189.141208,29.267762,-10.567886,0.028875,0.028875,188.7481229,29.30361648,-10.56400292,FALSE,230.6041605,230.6791058,0.417325,0.346154076,-15.19689863,0.496113228,-57.54625955,0.666804952
4.051335,188.728661,18.691897,3,-0.092529,0.205139,-0.02771,-0.973938,3.77,-0.34,-9.8,0.542935,0.069266,-10.491356,189.156594,28.85993,-10.4922,0.010875,0.010875,188.9894134,29.19421607,-10.49692948,FALSE,230.5928596,230.6207306,0.406525,0.317729388,-15.19200382,0.497838818,-57.67840569,0.671127152
4.063686,188.728661,18.691897,3,-0.090942,0.206238,-0.027588,-0.973877,3.83,-0.37,-9.74,0.492587,0.109421,-10.460345,189.263936,28.422801,-10.460696,0,0,189.31919,29.02433591,-10.46315178,FALSE,230.4870404,230.4870404,0.4,0.305652811,-15.18560895,0.498942299,-57.86600264,0.677282774
4.072293,189.670372,18.682613,3,-0.089478,0.207336,-0.027466,-0.973755,3.7,-0.42,-9.83,0.676657,0.124675,-10.489107,189.744294,28.682171,-10.488794,0.015625,0.015625,189.5735156,28.94081891,-10.48711571,FALSE,230.475617,230.5143478,0.409375,0.318698578,-15.18057711,0.499949731,-57.99668352,0.681581506
4.081194,190.145683,18.687255,3,-0.088135,0.208496,-0.027344,-0.973633,3.58,-0.42,-9.77,0.78362,0.107118,-10.383627,190.231421,28.892601,-10.384786,0.035625,0.035625,189.8458294,28.8677366,-10.39156666,FALSE,230.5011322,230.5884584,0.421375,0.275114134,-15.17407815,0.500981326,-58.13177692,0.686036149
4.093826,190.339073,18.696539,3,-0.086975,0.209717,-0.027161,-0.973511,3.69,-0.35,-9.69,0.664485,0.061106,-10.353236,190.658065,28.839732,-10.353583,0.059625,0.059625,190.2159151,28.74490994,-10.35617673,FALSE,230.4828357,230.6263817,0.435775,0.260585446,-15.16493191,0.502043829,-58.32339811,0.692371256
4.102727,190.903008,18.687255,3,-0.085815,0.210938,-0.027039,-0.973328,3.94,-0.33,-9.74,0.482145,0.072591,-10.500563,191.056799,28.96058,-10.498943,0.077625,0.077625,190.4921689,28.68049888,-10.48948566,FALSE,230.5438834,230.7289245,0.446575,0.325646011,-15.15982884,0.502638847,-58.45835845,0.696842596
4.111413,190.903008,18.687255,3,-0.084534,0.212219,-0.026917,-0.973206,3.65,-0.35,-9.76,0.779364,0.041864,-10.396815,191.218932,28.751266,-10.39794,0.095625,0.095625,190.7486796,28.59985172,-10.4039247,FALSE,230.5431796,230.7684002,0.457375,0.286248153,-15.1543501,0.503135925,-58.59001293,0.701210676
4.123878,191.281426,18.687255,3,-0.083191,0.213501,-0.026855,-0.973022,4.03,-0.33,-9.68,0.429026,0.081416,-10.481482,191.612774,28.665768,-10.480562,0.119625,0.119625,191.1129273,28.48159246,-10.47553179,FALSE,230.5384677,230.8153256,0.471775,0.323429133,-15.14681881,0.503904268,-58.77886497,0.707487054
4.132477,191.659874,18.687255,3,-0.081787,0.214905,-0.026855,-0.972839,4.17,-0.32,-9.69,0.334656,0.083755,-10.548391,191.88625,28.615911,-10.547644,0.137625,0.137625,191.3720167,28.41096575,-10.54280123,FALSE,230.570324,230.885434,0.482575,0.357892884,-15.14353536,0.504614421,-58.90909834,0.71182318
4.141508,191.659874,18.687255,3,-0.080383,0.216309,-0.026855,-0.972656,3.94,-0.38,-9.63,0.553808,0.106912,-10.396498,192.013241,28.350507,-10.398163,0.155625,0.155625,191.6296898,28.31789047,-10.4077224,FALSE,230.5432091,230.8946653,0.493375,0.293843848,-15.1395235,0.505475378,-59.0458415,0.716384241
4.154142,191.849632,18.687255,3,-0.078918,0.217773,-0.026855,-0.972412,4.17,-0.27,-9.64,0.364379,0.02263,-10.500357,192.275567,28.098203,-10.499231,0.179625,0.179625,191.9800012,28.17740377,-10.49325006,FALSE,230.4738928,230.8712898,0.507775,0.339247454,-15.13372332,0.506293694,-59.2370776,0.722775586
4.163014,192.228081,18.687255,3,-0.077454,0.219238,-0.026917,-0.972229,4.03,-0.39,-9.63,0.534064,0.113081,-10.432264,192.496825,27.963923,-10.433002,0.197625,0.197625,192.2295062,28.08425361,-10.43694286,FALSE,230.4426763,230.8738896,0.518575,0.313358193,-15.12973782,0.506895708,-59.37132631,0.727270094
4.174667,192.509056,18.682613,3,-0.075806,0.220703,-0.0271,-0.971985,4.82,-0.55,-9.6,-0.127541,0.368486,-10.749018,192.829067,27.848147,-10.745536,0.221625,0.221625,192.553786,27.95929546,-10.72507556,FALSE,230.3933696,230.8680444,0.532975,0.461469896,-15.12736922,0.509701558,-59.54761935,0.733193298
4.183502,192.888054,18.682613,3,-0.074219,0.222229,-0.027222,-0.971802,3.86,-0.17,-9.6,0.697791,-0.146598,-10.323781,193.108971,27.807247,-10.328429,0.237625,0.237625,192.8046194,27.87049374,-10.35456836,FALSE,230.3827471,230.8850349,0.542575,0.276377033,-15.12485014,0.510681749,-59.68125852,0.737700842
4.192112,192.325066,18.691897,3,-0.072571,0.223755,-0.027405,-0.971558,4.68,-0.41,-9.6,0.036401,0.184643,-10.686219,192.894484,27.118335,-10.682276,0.217625,0.217625,193.0096272,27.73487,-10.66077473,FALSE,230.2818369,230.7341254,0.530575,0.436014748,-15.12168944,0.510845532,-59.81146988,0.742098516
4.204349,193.839012,18.691897,3,-0.070923,0.225342,-0.027588,-0.971313,4.56,-0.44,-9.56,0.162416,0.188564,-10.598079,193.773377,27.662953,-10.599007,0.239625,0.239625,193.3719518,27.63637965,-10.60288902,FALSE,230.3483191,230.8389099,0.543775,0.409250264,-15.12047298,0.513128999,-59.99650655,0.748363705
4.213053,193.742027,18.687255,3,-0.069275,0.226929,-0.027832,-0.971069,4.55,-0.23,-9.48,0.137258,-0.028342,-10.516991,193.995548,27.544644,-10.517895,0.257625,0.257625,193.6183577,27.5525433,-10.5235811,FALSE,230.3459494,230.8667102,0.554575,0.370560242,-15.1191688,0.513826286,-60.12810947,0.752833014
4.22195,193.834313,18.682613,3,-0.067627,0.228516,-0.028015,-0.970764,4.19,-0.36,-9.58,0.552184,0.035439,-10.447745,194.146904,27.329642,-10.448518,0.277625,0.277625,193.8616945,27.45711852,-10.45356316,FALSE,230.3088074,230.8619152,0.566575,0.336527161,-15.11610182,0.513857857,-60.26261107,0.757404667
4.234505,193.742027,18.687255,3,-0.065979,0.230042,-0.028259,-0.97052,4.93,-0.4,-9.59,-0.062307,0.145993,-10.78922,194.254131,26.900494,-10.785466,0.253625,0.253625,194.183174,27.2953987,-10.76346837,FALSE,230.269561,230.7645589,0.552175,0.504505929,-15.11302661,0.514996796,-60.45237442,0.763863302
4.243359,194.121605,18.687255,3,-0.064392,0.231567,-0.028564,-0.970276,4.31,-0.39,-9.54,0.493568,0.054375,-10.463917,194.41484,26.69211,-10.467461,0.237625,0.237625,194.4098282,27.18072188,-10.48689862,FALSE,230.2385303,230.6954983,0.542575,0.361193995,-15.11111742,0.515883825,-60.58617671,0.768427011
4.252067,194.591911,18.682613,3,-0.062927,0.233093,-0.028809,-0.969971,4.95,-0.29,-9.58,-0.036047,0.00856,-10.787062,194.749361,26.734861,-10.78354,0.217625,0.217625,194.6435148,27.08571592,-10.76403343,FALSE,230.2714239,230.6850042,0.530575,0.512651015,-15.10912537,0.516157844,-60.71775565,0.77292052
