Code compiled on Dec 22 2025 at 15:34:53
﻿Simulation Mode (T/F),F
Airbrakes Enabled (T/F),T
Log File Name (max 7 chars uppercase),FLIGHT
Sim File Name (if applicable),Sim
Burnout Mass (kg),0.637
Air Density (kg/m^3),1.18
Rocket CD,0.71
Airbrake CD,0.8
Rocket Area (m^2),0.00243
Kalman Model Y STD,0.05
Kalman Model V STD,0.1
Kalman Model A STD,0.015
Kalman Measurement Y STD,0.26
Kalman Measurement A STD,0.013
Target Apogee (m),216
Launch Acceleration Threshold (m/s^2),20
Coast Lockout (s),1.5
KP (1/s),0.24
Altimeter lockout (s),120

Calibration point: 199.554877
Time (us),Altitude AGL (m),Temperature (deg C),Mode,IMU Quat W,IMU Quat X,IMU Quat Y,IMU Quat Z,IMU Local Acceleration X,IMU Local Acceleration Y,IMU Local Acceleration Z,IMU Global Acceleration x,IMU Global Acceleration y,IMU Global Acceleration z,State Estimation y,State Estimation v,State Estimation a,Servo deployment,
219200224,0.031533,16.653738,1,0.993530,-0.010132,-0.015686,-0.111938,0.040000,0.020000,-0.240000,0.050369,0.004936,-0.238828,0.000000,0.000000,0.000000,0.000000,
219213711,-0.339561,16.663025,1,0.993530,-0.010132,-0.015686,-0.112000,-0.040000,0.010000,-0.260000,-0.029234,0.012488,-0.261322,-0.144395,-0.003485,-0.258411,0.000000,
219220593,0.121239,16.667668,1,0.993530,-0.010132,-0.015686,-0.112000,-0.040000,0.010000,-0.260000,-0.029234,0.012488,-0.261322,-0.001464,-0.002836,-0.261290,0.000000,
219229108,0.117135,16.686242,1,0.993530,-0.010132,-0.015686,-0.112000,-0.020000,0.010000,-0.240000,-0.010324,0.008517,-0.240668,0.065053,-0.003346,-0.240895,0.000000,
219241511,-0.252937,16.695529,1,0.993530,-0.010132,-0.015686,-0.112000,0.030000,-0.080000,-0.280000,0.019495,-0.091264,-0.277472,-0.114903,-0.013801,-0.277069,0.000000,
219249586,0.299615,16.695529,1,0.993530,-0.010132,-0.015686,-0.111938,0.030000,-0.080000,-0.280000,0.019506,-0.091262,-0.277472,0.119919,0.001109,-0.277467,0.000000,
219258675,-0.163230,16.709459,1,0.993530,-0.010132,-0.015686,-0.111755,0.080000,0.040000,-0.240000,0.093795,0.015580,-0.237823,-0.040621,-0.013455,-0.238260,0.000000,
219363169,0.483132,16.704816,1,0.993530,-0.010132,-0.015686,-0.111938,0.040000,0.010000,-0.250000,0.048431,-0.005048,-0.248654,0.256366,-0.011199,-0.248540,0.000000,
219370399,-0.068412,16.695529,1,0.993530,-0.010132,-0.015686,-0.111938,0.030000,-0.020000,-0.240000,0.031715,-0.031833,-0.238497,0.064033,-0.164471,-0.238608,0.000000,
219383723,-0.163230,16.709459,1,0.993530,-0.010132,-0.015686,-0.111938,0.010000,0.030000,-0.260000,0.023941,0.020873,-0.259983,-0.068849,-0.221283,-0.259747,0.000000,
219393638,0.483132,16.704816,1,0.993530,-0.010132,-0.015686,-0.111816,0.030000,0.100000,-0.250000,0.058711,0.084913,-0.250485,0.243952,-0.127847,-0.250587,0.000000,
219400738,0.018731,16.718746,1,0.993530,-0.010132,-0.015686,-0.111755,0.020000,0.130000,-0.240000,0.055337,0.116618,-0.241325,0.114954,-0.160038,-0.241427,0.000000,
219414756,0.201714,16.728033,1,0.993530,-0.010132,-0.015686,-0.111816,0.010000,0.070000,-0.250000,0.032546,0.060106,-0.250655,0.162018,-0.154339,-0.250553,0.000000,
219424218,0.199670,16.737320,1,0.993530,-0.010132,-0.015686,-0.111938,-0.030000,0.020000,-0.240000,-0.017842,0.020483,-0.241168,0.181974,-0.151028,-0.241272,0.000000,
219430894,0.104836,16.751250,1,0.993530,-0.010132,-0.015686,-0.111938,-0.030000,0.020000,-0.240000,-0.017842,0.020483,-0.241168,0.137118,-0.163393,-0.241169,0.000000,
219439353,0.104836,16.751250,1,0.993530,-0.010132,-0.015686,-0.112061,0.030000,-0.050000,-0.250000,0.025307,-0.061317,-0.247992,0.117389,-0.169287,-0.247916,0.000000,
219448781,0.380608,16.755893,1,0.993530,-0.010132,-0.015686,-0.112122,-0.010000,-0.110000,-0.240000,-0.027350,-0.110663,-0.238339,0.265384,-0.137657,-0.238445,0.000000,
219461365,0.196587,16.755893,1,0.993530,-0.010132,-0.015686,-0.112122,0.030000,-0.100000,-0.220000,0.013277,-0.109342,-0.217182,0.224476,-0.150589,-0.217416,0.000000,
219469545,0.102792,16.760536,1,0.993530,-0.010132,-0.015686,-0.112061,0.040000,-0.030000,-0.240000,0.039222,-0.043810,-0.237997,0.153932,-0.176287,-0.237770,0.000000,
219478783,0.010018,16.765180,1,0.993530,-0.010132,-0.015686,-0.111938,0.000000,0.040000,-0.230000,0.015557,0.033551,-0.230504,0.070381,-0.203548,-0.230584,0.000000,
219491452,0.285775,16.769823,1,0.993530,-0.010132,-0.015686,-0.111877,-0.030000,0.020000,-0.220000,-0.018423,0.020954,-0.221182,0.190544,-0.166927,-0.221286,0.000000,
219499620,-0.360572,16.774467,1,0.993530,-0.010132,-0.015686,-0.111816,0.000000,0.070000,-0.250000,0.022801,0.062325,-0.250989,-0.125082,-0.297883,-0.250662,0.000000,
219508841,0.100732,16.769823,1,0.993530,-0.010132,-0.015686,-0.111755,0.000000,0.070000,-0.250000,0.022793,0.062327,-0.250990,0.000806,-0.253717,-0.250986,0.000000,
219521423,0.285775,16.769823,1,0.993530,-0.010132,-0.015686,-0.111755,0.040000,0.060000,-0.230000,0.058972,0.044182,-0.229500,0.160171,-0.195990,-0.229737,0.000000,
219529614,-0.176566,16.774467,1,0.993530,-0.010132,-0.015686,-0.111755,0.020000,0.080000,-0.240000,0.044218,0.067877,-0.240494,-0.033645,-0.288134,-0.240376,0.000000,
219538839,-0.084815,16.779110,1,0.993530,-0.010132,-0.015686,-0.111755,0.060000,0.070000,-0.240000,0.080976,0.049259,-0.238990,-0.065489,-0.302367,-0.239006,0.000000,
219551414,0.284234,16.779110,1,0.993530,-0.010132,-0.015686,-0.111877,0.050000,0.060000,-0.220000,0.068440,0.042185,-0.219172,0.130406,-0.220707,-0.219391,0.000000,
219559772,-0.084815,16.779110,1,0.993530,-0.010132,-0.015686,-0.111938,0.020000,-0.050000,-0.240000,0.015288,-0.058854,-0.238333,0.005577,-0.287611,-0.238124,0.000000,
219568907,-0.176566,16.774467,1,0.993530,-0.010132,-0.015686,-0.112000,0.010000,-0.090000,-0.270000,-0.002511,-0.096330,-0.267982,-0.101009,-0.338559,-0.267653,0.000000,
219581472,0.282189,16.788397,1,0.993530,-0.010132,-0.015686,-0.112000,-0.030000,-0.060000,-0.220000,-0.036247,-0.057018,-0.219853,0.113757,-0.238291,-0.220379,0.000000,
219589664,-0.086860,16.788397,1,0.993530,-0.010132,-0.015686,-0.111938,-0.040000,-0.030000,-0.240000,-0.038724,-0.026032,-0.240671,-0.002933,-0.307307,-0.240448,0.000000,
219598896,-0.179633,16.793040,1,0.993530,-0.010132,-0.015686,-0.111816,-0.020000,-0.020000,-0.250000,-0.016714,-0.020969,-0.250162,-0.106696,-0.361060,-0.250055,0.000000,
219611445,-0.178611,16.783753,1,0.993591,-0.010132,-0.015686,-0.111633,0.040000,0.030000,-0.270000,0.053453,0.014004,-0.268973,-0.152394,-0.385744,-0.268765,0.000000,
219619819,0.097665,16.788397,1,0.993591,-0.010132,-0.015686,-0.111450,0.060000,0.140000,-0.240000,0.096470,0.117553,-0.240156,-0.012478,-0.296250,-0.240471,0.000000,
219628941,0.189416,16.793040,1,0.993591,-0.010132,-0.015686,-0.111450,0.070000,0.150000,-0.220000,0.107856,0.125563,-0.220002,0.100212,-0.233370,-0.220228,0.000000,
219641471,-0.640418,16.788397,1,0.993591,-0.010132,-0.015686,-0.111572,0.080000,0.090000,-0.260000,0.105468,0.063884,-0.258641,-0.326841,-0.474877,-0.258218,0.000000,
219649852,0.649209,16.797683,1,0.993591,-0.010132,-0.015686,-0.111633,0.070000,0.090000,-0.250000,0.095442,0.066323,-0.248982,0.228437,-0.090492,-0.249084,0.000000,
219658967,0.560021,16.783753,1,0.993530,-0.010132,-0.015686,-0.111755,0.060000,0.020000,-0.210000,0.068989,0.001227,-0.208180,0.417275,0.022774,-0.208631,0.000000,
219671582,0.002831,16.802327,1,0.993530,-0.010132,-0.015686,-0.111877,0.000000,-0.070000,-0.260000,-0.008069,-0.074380,-0.258655,0.180004,-0.124127,-0.258104,0.000000,
219679773,0.004891,16.793040,1,0.993530,-0.010132,-0.015686,-0.111877,-0.060000,-0.050000,-0.230000,-0.062952,-0.040856,-0.231015,0.078561,-0.200828,-0.231313,0.000000,
219689006,0.649209,16.797683,1,0.993530,-0.010132,-0.015686,-0.111816,-0.050000,-0.050000,-0.240000,-0.052914,-0.043320,-0.240673,0.403330,0.007448,-0.240570,0.000000,
219701560,0.280648,16.797683,1,0.993591,-0.010132,-0.015686,-0.111694,-0.030000,0.010000,-0.250000,-0.019787,0.010488,-0.250995,0.333029,-0.041326,-0.250880,0.000000,
219709743,0.465188,16.797683,1,0.993591,-0.010132,-0.015686,-0.111572,0.030000,0.090000,-0.210000,0.055292,0.076136,-0.210348,0.408530,0.017052,-0.210794,0.000000,
219718988,0.189416,16.793040,1,0.993591,-0.010132,-0.015686,-0.111511,0.080000,0.080000,-0.220000,0.102084,0.055093,-0.218503,0.283175,-0.070887,-0.218418,0.000000,
219731569,-0.366203,16.802327,1,0.993591,-0.010132,-0.015686,-0.111511,0.060000,0.120000,-0.250000,0.092335,0.097806,-0.249816,-0.090546,-0.330592,-0.249470,0.000000,
219739730,0.096124,16.797683,1,0.993591,-0.010132,-0.015686,-0.111511,0.050000,0.090000,-0.250000,0.075932,0.070771,-0.249651,0.013964,-0.242547,-0.249649,0.000000,
219748964,-0.456931,16.797683,1,0.993591,-0.010132,-0.015686,-0.111511,0.030000,0.040000,-0.250000,0.045343,0.026451,-0.249488,-0.258175,-0.440085,-0.249490,0.000000,
219761516,0.280648,16.797683,1,0.993591,-0.010132,-0.015686,-0.111511,0.000000,0.050000,-0.240000,0.018034,0.043075,-0.240664,0.045845,-0.218507,-0.240762,0.000000,
219769890,0.189416,16.793040,1,0.993591,-0.010132,-0.015686,-0.111511,0.060000,0.040000,-0.230000,0.074004,0.020285,-0.228499,0.126544,-0.147540,-0.228634,0.000000,
219779014,0.096124,16.797683,1,0.993591,-0.010132,-0.015686,-0.111572,-0.030000,-0.020000,-0.240000,-0.026741,-0.018528,-0.240503,0.107739,-0.163164,-0.240372,0.000000,
219791573,0.372399,16.802327,1,0.993591,-0.010132,-0.015686,-0.111633,-0.010000,-0.050000,-0.230000,-0.014204,-0.051965,-0.229342,0.257829,-0.050348,-0.229464,0.000000,
219799766,0.373437,16.793040,1,0.993591,-0.010132,-0.015686,-0.111633,-0.030000,-0.060000,-0.250000,-0.035340,-0.057756,-0.249831,0.323906,0.009123,-0.249606,0.000000,
219808997,0.002831,16.802327,1,0.993591,-0.010132,-0.015686,-0.111572,0.010000,-0.050000,-0.240000,0.005583,-0.056631,-0.238667,0.139733,-0.139909,-0.238787,0.000000,
219821651,0.094079,16.806970,1,0.993591,-0.010132,-0.015686,-0.111450,0.030000,0.040000,-0.240000,0.045051,0.026692,-0.239495,0.111675,-0.163849,-0.239487,0.000000,
219829809,-0.274467,16.806970,1,0.993591,-0.010132,-0.015686,-0.111267,0.070000,0.130000,-0.240000,0.103958,0.105629,-0.239656,-0.111952,-0.381503,-0.239655,0.000000,
219839063,0.185830,16.811613,1,0.993652,-0.010132,-0.015686,-0.111206,0.060000,0.160000,-0.240000,0.100838,0.137099,-0.240490,0.055490,-0.241638,-0.240481,0.000000,
219851618,0.187356,16.802327,1,0.993652,-0.010132,-0.015686,-0.111206,0.040000,0.150000,-0.240000,0.079129,0.131762,-0.240993,0.128356,-0.181661,-0.240987,0.000000,
219859800,0.372399,16.802327,1,0.993591,-0.010132,-0.015686,-0.111328,0.020000,0.060000,-0.250000,0.040016,0.048176,-0.250156,0.267423,-0.042573,-0.250055,0.000000,
219869048,0.094079,16.806970,1,0.993591,-0.010132,-0.015686,-0.111450,0.000000,-0.020000,-0.260000,0.003081,-0.025643,-0.259486,0.167435,-0.130837,-0.259382,0.000000,
219878652,0.001290,16.811613,1,0.993591,-0.010132,-0.015686,-0.111511,0.010000,-0.040000,-0.260000,0.008387,-0.047354,-0.258819,0.070698,-0.215640,-0.258825,0.000000,
219891483,-0.089942,16.806970,1,0.993591,-0.010132,-0.015686,-0.111511,0.030000,-0.060000,-0.230000,0.022574,-0.070569,-0.227839,-0.024705,-0.300481,-0.228180,0.000000,
219899854,0.280648,16.797683,1,0.993591,-0.010132,-0.015686,-0.111450,0.020000,-0.020000,-0.250000,0.022286,-0.029830,-0.248824,0.148917,-0.113755,-0.248597,0.000000,
219909086,0.094079,16.806970,1,0.993591,-0.010132,-0.015686,-0.111389,0.070000,0.040000,-0.240000,0.084035,0.017856,-0.238158,0.116318,-0.144998,-0.238273,0.000000,
219921638,-0.552268,16.811613,1,0.993591,-0.010132,-0.015686,-0.111267,0.050000,0.040000,-0.280000,0.065691,0.021347,-0.278799,-0.271049,-0.497595,-0.278353,0.000000,
219930015,0.372399,16.802327,1,0.993591,-0.010132,-0.015686,-0.111267,0.040000,0.050000,-0.260000,0.057579,0.033778,-0.259314,0.095993,-0.096307,-0.259524,0.000000,
219939140,0.002831,16.802327,1,0.993591,-0.010132,-0.015686,-0.111267,0.010000,0.050000,-0.270000,0.028626,0.040165,-0.270310,0.041514,-0.149225,-0.270191,0.000000,
219951767,-0.183738,16.811613,1,0.993591,-0.010132,-0.015686,-0.111267,0.000000,0.050000,-0.240000,0.018011,0.043082,-0.240665,-0.090322,-0.272199,-0.240990,0.000000,
219959923,-0.274467,16.806970,1,0.993591,-0.010132,-0.015686,-0.111267,-0.010000,0.060000,-0.270000,0.011345,0.054331,-0.271145,-0.198820,-0.393257,-0.270812,0.000000,
219969188,-0.089942,16.806970,1,0.993591,-0.010132,-0.015686,-0.111267,0.010000,0.070000,-0.230000,0.031898,0.060611,-0.230670,-0.139826,-0.335546,-0.231113,0.000000,
219981752,0.832207,16.806970,1,0.993591,-0.010132,-0.015686,-0.111267,0.030000,0.040000,-0.240000,0.045039,0.026708,-0.239496,0.416930,0.194853,-0.239403,0.000000,
219989931,0.463128,16.806970,1,0.993591,-0.010132,-0.015686,-0.111328,0.020000,0.020000,-0.230000,0.030576,0.009648,-0.229504,0.445189,0.223522,-0.229613,0.000000,
219999148,0.094079,16.806970,1,0.993591,-0.010132,-0.015686,-0.111389,0.050000,-0.030000,-0.230000,0.048735,-0.045736,-0.227669,0.245141,0.023336,-0.227690,0.000000,
220011714,-0.274467,16.806970,1,0.993591,-0.010132,-0.015686,-0.111389,0.040000,-0.060000,-0.250000,0.032916,-0.073247,-0.247490,-0.054589,-0.271317,-0.247272,0.000000,
220020072,0.556939,16.802327,1,0.993591,-0.010132,-0.015686,-0.111389,0.020000,-0.050000,-0.240000,0.015350,-0.058840,-0.238332,0.296437,0.140563,-0.238431,0.000000,
220029188,0.001290,16.811613,1,0.993591,-0.010132,-0.015686,-0.111328,0.010000,-0.010000,-0.250000,0.014761,-0.017866,-0.249325,0.127732,-0.033945,-0.249205,0.000000,
220041752,0.187356,16.802327,1,0.993591,-0.010132,-0.015686,-0.111206,0.010000,0.110000,-0.240000,0.041031,0.099381,-0.241329,0.161725,-0.002811,-0.241416,0.000000,
220049937,0.185830,16.811613,1,0.993652,-0.010132,-0.015686,-0.111145,0.020000,0.120000,-0.250000,0.053270,0.106694,-0.251155,0.175623,0.011798,-0.251048,0.000000,
220059168,-0.274467,16.806970,1,0.993652,-0.010132,-0.015686,-0.111145,0.020000,0.110000,-0.230000,0.050479,0.097415,-0.231002,-0.083544,-0.255864,-0.231223,0.000000,
220071740,0.187356,16.802327,1,0.993652,-0.010132,-0.015686,-0.111145,0.030000,0.090000,-0.230000,0.055804,0.075708,-0.230335,0.069767,-0.099845,-0.230345,0.000000,
220080098,0.094079,16.806970,1,0.993591,-0.010132,-0.015686,-0.111206,0.030000,0.020000,-0.220000,0.040031,0.007684,-0.219177,0.082983,-0.084502,-0.219300,0.000000,
220089244,0.370354,16.811613,1,0.993591,-0.010132,-0.015686,-0.111267,0.050000,-0.020000,-0.240000,0.051249,-0.036210,-0.237828,0.247821,0.088134,-0.237624,0.000000,
220101847,0.278603,16.806970,1,0.993591,-0.010132,-0.015686,-0.111328,0.030000,-0.020000,-0.220000,0.031172,-0.031325,-0.218511,0.266710,0.103777,-0.218722,0.000000,
220110040,0.001290,16.811613,1,0.993591,-0.010132,-0.015686,-0.111328,0.030000,-0.040000,-0.230000,0.027030,-0.051062,-0.228171,0.114042,-0.089341,-0.228067,0.000000,
220119273,0.002831,16.802327,1,0.993591,-0.010132,-0.015686,-0.111267,0.030000,-0.030000,-0.240000,0.029540,-0.041545,-0.238331,0.049101,-0.159794,-0.238217,0.000000,
220131836,0.001290,16.811613,1,0.993652,-0.010132,-0.015686,-0.111206,0.000000,0.020000,-0.240000,0.011367,0.013832,-0.240166,0.019425,-0.191931,-0.240144,0.000000,
220139996,0.185830,16.811613,1,0.993652,-0.010132,-0.015686,-0.111145,0.000000,0.050000,-0.240000,0.018001,0.043085,-0.240665,0.114120,-0.072126,-0.240659,0.000000,
220149250,-0.091987,16.816257,1,0.993652,-0.010132,-0.015686,-0.111084,0.020000,0.080000,-0.240000,0.044124,0.067932,-0.240496,-0.005394,-0.202612,-0.240498,0.000000,
220161805,0.185830,16.811613,1,0.993652,-0.010132,-0.015686,-0.111084,0.040000,0.080000,-0.250000,0.063910,0.063287,-0.249821,0.102667,-0.087371,-0.249718,0.000000,
220170108,0.092538,16.816257,1,0.993652,-0.010132,-0.015686,-0.111084,0.030000,0.080000,-0.240000,0.053872,0.065727,-0.240162,0.096070,-0.096891,-0.240267,0.000000,
220179225,0.462106,16.816257,1,0.993652,-0.010132,-0.015686,-0.111084,0.050000,0.060000,-0.220000,0.068369,0.042289,-0.219174,0.306296,0.134325,-0.219407,0.000000,
220191831,0.277581,16.816257,1,0.993652,-0.010132,-0.015686,-0.111145,0.060000,0.010000,-0.230000,0.067352,-0.008916,-0.228001,0.291355,0.113496,-0.227906,0.000000,
220200011,-0.276511,16.816257,1,0.993652,-0.010132,-0.015686,-0.111145,0.040000,-0.020000,-0.250000,0.041798,-0.034230,-0.248156,-0.036474,-0.316935,-0.247933,0.000000,
220209246,0.092538,16.816257,1,0.993652,-0.010132,-0.015686,-0.111145,0.020000,-0.030000,-0.240000,0.019801,-0.039333,-0.238665,0.035014,-0.236355,-0.238767,0.000000,
220229733,0.370354,16.811613,1,0.993652,-0.010132,-0.015686,-0.111145,-0.020000,0.000000,-0.220000,-0.013133,-0.000786,-0.220515,0.225931,-0.027416,-0.220716,0.000000,
220239164,0.094079,16.806970,1,0.993652,-0.010132,-0.015686,-0.111084,-0.010000,0.030000,-0.230000,0.003536,0.026025,-0.230673,0.148009,-0.169189,-0.230564,0.000000,
220248865,-0.181693,16.802327,1,0.993652,-0.010132,-0.015686,-0.110962,0.040000,0.050000,-0.240000,0.056979,0.034283,-0.239328,-0.045451,-0.440163,-0.239232,0.000000,
220261675,0.185830,16.811613,1,0.993652,-0.010132,-0.015686,-0.110901,0.020000,0.090000,-0.240000,0.046304,0.077699,-0.240663,0.083385,-0.275868,-0.240647,0.000000,
220270088,0.465188,16.797683,1,0.993652,-0.010132,-0.015686,-0.110901,0.050000,0.080000,-0.250000,0.073634,0.061108,-0.249487,0.302646,0.028910,-0.249390,0.000000,
220279324,-0.458976,16.806970,1,0.993652,-0.010132,-0.015686,-0.110901,0.040000,0.070000,-0.230000,0.061099,0.054029,-0.229669,-0.137013,-0.484461,-0.229886,0.000000,
220288907,0.278603,16.806970,1,0.993652,-0.010132,-0.015686,-0.110901,0.060000,0.060000,-0.250000,0.078969,0.039404,-0.248820,0.098250,-0.217239,-0.248611,0.000000,
220301696,-0.183738,16.811613,1,0.993652,-0.010132,-0.015686,-0.111023,0.040000,0.050000,-0.240000,0.056984,0.034276,-0.239328,-0.067950,-0.404868,-0.239431,0.000000,
220310072,0.278603,16.806970,1,0.993652,-0.010132,-0.015686,-0.111084,0.000000,-0.040000,-0.250000,-0.001613,-0.044910,-0.249160,0.129533,-0.136000,-0.249052,0.000000,
220319313,0.001290,16.811613,1,0.993652,-0.010132,-0.015686,-0.111084,-0.030000,-0.040000,-0.240000,-0.031147,-0.038060,-0.240169,0.054219,-0.223618,-0.240267,0.000000,
220331896,-0.458976,16.806970,1,0.993652,-0.010132,-0.015686,-0.111084,-0.020000,-0.060000,-0.260000,-0.025241,-0.060239,-0.259488,-0.245872,-0.561720,-0.259276,0.000000,
220340076,-0.183738,16.811613,1,0.993652,-0.010132,-0.015686,-0.111023,0.010000,0.030000,-0.250000,0.023608,0.021147,-0.249991,-0.214478,-0.515400,-0.250093,0.000000,
220349305,0.001290,16.811613,1,0.993652,-0.010132,-0.015686,-0.110901,0.060000,0.060000,-0.250000,0.078969,0.039404,-0.248820,-0.094703,-0.375210,-0.248834,0.000000,
220361947,0.185830,16.811613,1,0.993652,-0.010132,-0.015686,-0.110779,0.040000,0.070000,-0.220000,0.060796,0.054280,-0.219676,0.063034,-0.194616,-0.219997,0.000000,
220370126,0.278603,16.806970,1,0.993652,-0.010132,-0.015686,-0.110779,0.060000,0.110000,-0.230000,0.089403,0.088657,-0.229667,0.186353,-0.026940,-0.229561,0.000000,
220379361,0.277581,16.816257,1,0.993652,-0.010132,-0.015686,-0.110779,0.040000,0.060000,-0.230000,0.058880,0.044291,-0.229502,0.238762,0.031807,-0.229503,0.000000,
220391918,0.370354,16.811613,1,0.993652,-0.010132,-0.015686,-0.110840,0.030000,0.020000,-0.250000,0.040892,0.007003,-0.249156,0.315377,0.115598,-0.248940,0.000000,
220400084,-0.183738,16.811613,1,0.993652,-0.010132,-0.015686,-0.110901,0.030000,0.010000,-0.240000,0.038397,-0.002518,-0.238997,0.027067,-0.281179,-0.239106,0.000000,
220409315,0.370354,16.811613,1,0.993652,-0.010132,-0.015686,-0.110901,-0.010000,0.000000,-0.240000,-0.002807,-0.003467,-0.240167,0.222667,-0.052785,-0.240155,0.000000,
220421874,0.092538,16.816257,1,0.993652,-0.010132,-0.015686,-0.110901,-0.010000,-0.010000,-0.240000,-0.005014,-0.013219,-0.240000,0.146585,-0.142446,-0.240002,0.000000,
220430250,-0.183738,16.811613,1,0.993652,-0.010132,-0.015686,-0.110901,0.020000,-0.020000,-0.220000,0.021448,-0.029101,-0.218845,-0.046137,-0.407895,-0.219078,0.000000,
220439376,0.277581,16.816257,1,0.993652,-0.010132,-0.015686,-0.110901,0.000000,0.000000,-0.250000,0.007231,-0.005904,-0.249826,0.137110,-0.188055,-0.249487,0.000000,
220451980,-0.276511,16.816257,1,0.993652,-0.010132,-0.015686,-0.110901,0.040000,0.030000,-0.240000,0.052560,0.014785,-0.238995,-0.104994,-0.468551,-0.239111,0.000000,
220460143,-0.368262,16.811613,1,0.993652,-0.010132,-0.015686,-0.110901,0.040000,0.060000,-0.220000,0.058603,0.044514,-0.219509,-0.261463,-0.682583,-0.219725,0.000000,
220469362,0.092538,16.816257,1,0.993652,-0.010132,-0.015686,-0.110840,0.060000,0.080000,-0.240000,0.083086,0.059154,-0.239160,-0.063307,-0.442761,-0.238946,0.000000,
220481914,0.278603,16.806970,1,0.993652,-0.010132,-0.015686,-0.110840,0.060000,0.080000,-0.240000,0.083086,0.059154,-0.239160,0.129299,-0.214412,-0.239158,0.000000,
220490298,0.185830,16.811613,1,0.993652,-0.010132,-0.015686,-0.110840,0.040000,0.080000,-0.230000,0.063298,0.063789,-0.229835,0.160282,-0.170519,-0.229938,0.000000,
220499408,0.094079,16.806970,1,0.993652,-0.010132,-0.015686,-0.110840,0.010000,0.050000,-0.250000,0.028011,0.040659,-0.250324,0.120468,-0.218950,-0.250100,0.000000,
220512009,-0.183738,16.811613,1,0.993652,-0.010132,-0.015686,-0.110901,0.020000,0.030000,-0.220000,0.032483,0.019659,-0.219678,-0.058668,-0.428748,-0.220013,0.000000,
220520172,0.462106,16.816257,1,0.993652,-0.010132,-0.015686,-0.110962,0.010000,0.000000,-0.240000,0.016691,-0.007870,-0.239498,0.239857,-0.004837,-0.239284,0.000000,
220529403,0.370354,16.811613,1,0.993652,-0.010132,-0.015686,-0.110962,0.020000,-0.020000,-0.240000,0.022023,-0.029575,-0.238831,0.315195,0.083450,-0.238836,0.000000,
220541960,0.277581,16.816257,1,0.993652,-0.010132,-0.015686,-0.110962,0.010000,-0.040000,-0.240000,0.007857,-0.046877,-0.238832,0.294414,0.054625,-0.238832,0.000000,
220550352,0.370354,16.811613,1,0.993652,-0.010132,-0.015686,-0.110901,0.040000,0.030000,-0.240000,0.052560,0.014785,-0.238995,0.338926,0.115037,-0.238994,0.000000,
220559470,-0.091987,16.816257,1,0.993652,-0.010132,-0.015686,-0.110779,0.040000,0.060000,-0.260000,0.059748,0.043583,-0.259482,0.090922,-0.191921,-0.259256,0.000000,
220572049,-0.000755,16.820900,1,0.993652,-0.010132,-0.015686,-0.110718,0.050000,0.100000,-0.250000,0.078017,0.080640,-0.249821,0.035324,-0.258309,-0.249925,0.000000,
220580210,0.368310,16.820900,1,0.993652,-0.010132,-0.015686,-0.110718,0.040000,0.090000,-0.260000,0.066353,0.072848,-0.259982,0.226379,0.015035,-0.259871,0.000000,
220589444,0.737374,16.820900,1,0.993652,-0.010132,-0.015686,-0.110718,0.010000,0.080000,-0.240000,0.034321,0.070159,-0.240831,0.521795,0.371273,-0.241041,0.000000,
220601987,0.001290,16.811613,1,0.993652,-0.010132,-0.015686,-0.110779,0.000000,0.040000,-0.240000,0.015762,0.033344,-0.240499,0.224548,0.006655,-0.240505,0.000000,
220610334,0.278603,16.806970,1,0.993652,-0.010132,-0.015686,-0.110779,0.020000,0.020000,-0.230000,0.030562,0.009678,-0.229504,0.255965,0.049647,-0.229626,0.000000,
220619448,-0.000755,16.820900,1,0.993652,-0.010132,-0.015686,-0.110779,0.030000,0.000000,-0.230000,0.035902,-0.012025,-0.228837,0.108019,-0.135387,-0.228846,0.000000,
220632009,0.462106,16.816257,1,0.993652,-0.010132,-0.015686,-0.110779,0.020000,0.000000,-0.240000,0.026442,-0.010063,-0.239164,0.311676,0.108181,-0.239051,0.000000,
220640198,0.277581,16.816257,1,0.993652,-0.010132,-0.015686,-0.110779,0.030000,0.000000,-0.250000,0.036481,-0.012498,-0.248823,0.292769,0.077679,-0.248715,0.000000,
220649429,0.090997,16.825543,1,0.993652,-0.010132,-0.015686,-0.110779,0.040000,0.010000,-0.230000,0.047857,-0.004471,-0.228669,0.176852,-0.067584,-0.228890,0.000000,
220659123,0.275521,16.825543,1,0.993652,-0.010132,-0.015686,-0.110718,0.040000,0.040000,-0.250000,0.055046,0.024321,-0.249155,0.233228,-0.000743,-0.248932,0.000000,
220671916,0.185830,16.811613,1,0.993652,-0.010132,-0.015686,-0.110657,0.030000,0.070000,-0.270000,0.052478,0.055310,-0.269976,0.205669,-0.038303,-0.269744,0.000000,
220680302,0.462106,16.816257,1,0.993652,-0.010132,-0.015686,-0.110657,0.030000,0.070000,-0.240000,0.051610,0.056018,-0.239997,0.354321,0.179731,-0.240324,0.000000,
220689534,0.090997,16.825543,1,0.993652,-0.010132,-0.015686,-0.110657,0.010000,0.050000,-0.240000,0.027705,0.040904,-0.240332,0.203649,-0.014662,-0.240332,0.000000,
220702089,0.462106,16.816257,1,0.993652,-0.010132,-0.015686,-0.110657,0.010000,0.070000,-0.240000,0.032109,0.060410,-0.240665,0.353454,0.166539,-0.240661,0.000000,
220710270,-0.184760,16.820900,1,0.993652,-0.010132,-0.015686,-0.110657,0.020000,0.060000,-0.240000,0.039657,0.048461,-0.240164,0.042383,-0.291222,-0.240170,0.000000,
220719514,0.737374,16.820900,1,0.993652,-0.010132,-0.015686,-0.110657,0.050000,0.000000,-0.210000,0.054826,-0.015937,-0.208183,0.441494,0.205587,-0.208535,0.000000,
220732149,0.554375,16.811613,1,0.993652,-0.010132,-0.015686,-0.110657,0.000000,0.010000,-0.230000,0.008856,0.004324,-0.230006,0.509584,0.282787,-0.229770,0.000000,
220740328,0.183770,16.820900,1,0.993652,-0.010132,-0.015686,-0.110657,0.040000,-0.010000,-0.260000,0.044320,-0.024674,-0.258315,0.322734,0.003422,-0.258001,0.000000,
220749488,0.368310,16.820900,1,0.993652,-0.010132,-0.015686,-0.110657,0.040000,-0.010000,-0.240000,0.043742,-0.024202,-0.238329,0.349105,0.034076,-0.238546,0.000000,
220762043,0.183770,16.820900,1,0.993652,-0.010132,-0.015686,-0.110657,0.040000,0.000000,-0.240000,0.045944,-0.014449,-0.238496,0.253578,-0.086085,-0.238497,0.000000,
220770418,0.462106,16.816257,1,0.993713,-0.010193,-0.015686,-0.110596,0.000000,0.030000,-0.240000,0.013544,0.023565,-0.240336,0.373931,0.088959,-0.240315,0.000000,
220779540,0.275521,16.825543,1,0.993713,-0.010193,-0.015686,-0.110535,0.010000,0.060000,-0.240000,0.029892,0.050634,-0.240505,0.317821,0.014990,-0.240503,0.000000,
220792105,-0.000755,16.820900,1,0.993713,-0.010193,-0.015686,-0.110535,0.040000,0.070000,-0.240000,0.061344,0.053806,-0.239670,0.133110,-0.214865,-0.239679,0.000000,
220800279,0.368310,16.820900,1,0.993713,-0.010193,-0.015686,-0.110535,0.040000,0.060000,-0.230000,0.058855,0.044290,-0.229509,0.267891,-0.016205,-0.229621,0.000000,
220809503,0.090997,16.825543,1,0.993713,-0.010193,-0.015686,-0.110535,0.010000,0.070000,-0.260000,0.032670,0.059913,-0.260659,0.165446,-0.146566,-0.260317,0.000000,
220822060,0.460061,16.825543,1,0.993713,-0.010193,-0.015686,-0.110535,0.030000,0.030000,-0.240000,0.042793,0.016986,-0.239333,0.334580,0.061136,-0.239564,0.000000,
220830438,0.090997,16.825543,1,0.993713,-0.010193,-0.015686,-0.110535,0.020000,-0.010000,-0.230000,0.023953,-0.019598,-0.229003,0.193619,-0.149111,-0.229119,0.000000,
220839560,0.090997,16.825543,1,0.993713,-0.010193,-0.015686,-0.110535,0.040000,-0.020000,-0.250000,0.041833,-0.034213,-0.248152,0.132892,-0.226727,-0.247942,0.000000,
220852107,-0.278556,16.825543,1,0.993713,-0.010193,-0.015686,-0.110535,0.020000,-0.020000,-0.220000,0.021464,-0.029114,-0.218842,-0.108778,-0.524256,-0.219162,0.000000,
220860289,-0.000755,16.820900,1,0.993713,-0.010193,-0.015686,-0.110535,0.010000,-0.010000,-0.250000,0.014781,-0.017878,-0.249323,-0.050355,-0.433747,-0.248990,0.000000,
220869497,0.090997,16.825543,1,0.993713,-0.010193,-0.015686,-0.110474,0.010000,0.030000,-0.260000,0.023867,0.020901,-0.259988,0.027380,-0.333319,-0.259866,0.000000,
220882076,0.368310,16.820900,1,0.993713,-0.010193,-0.015686,-0.110413,0.010000,0.070000,-0.240000,0.032076,0.060394,-0.240673,0.221068,-0.091425,-0.240885,0.000000,
220890265,0.275521,16.825543,1,0.993713,-0.010193,-0.015686,-0.110413,0.040000,0.070000,-0.250000,0.061619,0.053584,-0.249664,0.251932,-0.046618,-0.249567,0.000000,
220899498,0.368310,16.820900,1,0.993713,-0.010193,-0.015686,-0.110413,0.030000,0.070000,-0.240000,0.051579,0.056012,-0.240005,0.318798,0.036140,-0.240110,0.000000,
220912107,0.182748,16.830187,1,0.993713,-0.010193,-0.015686,-0.110413,0.020000,0.050000,-0.240000,0.037432,0.038695,-0.240003,0.240248,-0.065062,-0.240004,0.000000,
220920289,-0.184760,16.820900,1,0.993713,-0.010193,-0.015686,-0.110413,0.050000,0.040000,-0.250000,0.064778,0.022130,-0.248825,-0.007126,-0.434434,-0.248728,0.000000,
220929510,0.092538,16.816257,1,0.993713,-0.010193,-0.015686,-0.110413,0.030000,0.010000,-0.240000,0.038393,-0.002513,-0.238997,0.046501,-0.363656,-0.239104,0.000000,
220942113,-0.000755,16.820900,1,0.993713,-0.010193,-0.015686,-0.110413,0.020000,0.030000,-0.240000,0.033037,0.019187,-0.239667,0.014463,-0.400836,-0.239661,0.000000,
220950293,0.092538,16.816257,1,0.993713,-0.010193,-0.015686,-0.110413,0.010000,0.010000,-0.270000,0.019758,0.001158,-0.269645,0.056520,-0.335454,-0.269314,0.000000,
220959528,0.368310,16.820900,1,0.993713,-0.010193,-0.015686,-0.110413,-0.010000,0.020000,-0.250000,0.001875,0.015769,-0.250495,0.233753,-0.109069,-0.250703,0.000000,
220969106,0.367272,16.830187,1,0.993713,-0.010193,-0.015686,-0.110413,0.030000,0.010000,-0.230000,0.038104,-0.002275,-0.229004,0.309930,-0.014491,-0.229243,0.000000,
220981996,0.090997,16.825543,1,0.993713,-0.010193,-0.015686,-0.110413,0.010000,0.010000,-0.240000,0.018891,0.001870,-0.239666,0.182489,-0.178942,-0.239551,0.000000,
220990370,0.183770,16.820900,1,0.993713,-0.010193,-0.015686,-0.110413,0.040000,0.060000,-0.250000,0.059421,0.043830,-0.249496,0.181727,-0.179897,-0.249386,0.000000,
220999498,-0.000755,16.820900,1,0.993713,-0.010193,-0.015686,-0.110413,0.050000,0.070000,-0.240000,0.071081,0.051630,-0.239336,0.074465,-0.319223,-0.239447,0.000000,
221012250,0.368310,16.820900,1,0.993713,-0.010193,-0.015686,-0.110413,0.020000,0.060000,-0.250000,0.039919,0.048212,-0.250164,0.241047,-0.108291,-0.250046,0.000000,
221020414,0.183770,16.820900,1,0.993713,-0.010193,-0.015686,-0.110413,0.030000,0.050000,-0.250000,0.047473,0.036267,-0.249662,0.206875,-0.160553,-0.249666,0.000000,
221029531,0.275521,16.825543,1,0.993713,-0.010193,-0.015686,-0.110413,0.060000,0.040000,-0.260000,0.074818,0.019702,-0.258484,0.245107,-0.112189,-0.258387,0.000000,
221042112,-0.369285,16.820900,1,0.993713,-0.010193,-0.015686,-0.110413,0.020000,0.000000,-0.240000,0.026444,-0.010075,-0.239164,-0.113010,-0.559639,-0.239375,0.000000,
221050340,0.460061,16.825543,1,0.993713,-0.010193,-0.015686,-0.110413,0.010000,-0.010000,-0.240000,0.014495,-0.017638,-0.239330,0.215246,-0.064137,-0.239330,0.000000,
221059570,0.368310,16.820900,1,0.993713,-0.010193,-0.015686,-0.110413,-0.010000,-0.010000,-0.240000,-0.005007,-0.013256,-0.239998,0.303190,0.046700,-0.239991,0.000000,
221072145,-0.000755,16.820900,1,0.993713,-0.010193,-0.015686,-0.110413,0.010000,0.020000,-0.240000,0.021088,0.011624,-0.239834,0.127262,-0.177855,-0.239835,0.000000,
221080429,0.183770,16.820900,1,0.993713,-0.010193,-0.015686,-0.110413,-0.020000,0.050000,-0.250000,-0.001284,0.047222,-0.251333,0.158609,-0.130724,-0.251207,0.000000,
221089537,0.368310,16.820900,1,0.993713,-0.010193,-0.015686,-0.110413,0.030000,0.070000,-0.240000,0.051579,0.056012,-0.240005,0.278719,0.022842,-0.240128,0.000000,
221102123,0.275521,16.825543,1,0.993713,-0.010193,-0.015686,-0.110413,0.030000,0.080000,-0.240000,0.053776,0.065766,-0.240173,0.277131,0.017498,-0.240172,0.000000,
221110491,0.368310,16.820900,1,0.993713,-0.010193,-0.015686,-0.110413,0.060000,0.070000,-0.250000,0.081122,0.049201,-0.248995,0.330246,0.094819,-0.248898,0.000000,
221119636,-0.002296,16.830187,1,0.993713,-0.010193,-0.015686,-0.110413,0.040000,0.060000,-0.240000,0.059132,0.044067,-0.239503,0.138690,-0.155738,-0.239606,0.000000,
221132220,0.090997,16.825543,1,0.993713,-0.010193,-0.015686,-0.110413,0.010000,0.010000,-0.260000,0.019469,0.001395,-0.259652,0.109014,-0.193804,-0.259431,0.000000,
221140400,-0.186820,16.830187,1,0.993713,-0.010193,-0.015686,-0.110413,0.020000,0.030000,-0.270000,0.033905,0.018475,-0.269646,-0.064432,-0.454265,-0.269534,0.000000,
221149633,-0.184760,16.820900,1,0.993713,-0.010193,-0.015686,-0.110413,0.000000,-0.010000,-0.220000,0.004166,-0.014973,-0.219678,-0.138246,-0.545328,-0.220227,0.000000,
221162160,0.275521,16.825543,1,0.993713,-0.010193,-0.015686,-0.110413,0.000000,0.020000,-0.260000,0.011915,0.013341,-0.260154,0.095173,-0.246084,-0.259714,0.000000,
221170343,0.645623,16.816257,1,0.993713,-0.010193,-0.015686,-0.110413,0.010000,0.010000,-0.240000,0.018891,0.001870,-0.239666,0.412890,0.231822,-0.239887,0.000000,
221179608,0.183770,16.820900,1,0.993713,-0.010193,-0.015686,-0.110413,0.030000,0.020000,-0.240000,0.040591,0.007242,-0.239165,0.282476,0.060055,-0.239173,0.000000,
221192173,-0.371329,16.830187,1,0.993713,-0.010193,-0.015686,-0.110413,0.020000,0.030000,-0.240000,0.033037,0.019187,-0.239667,-0.096496,-0.422220,-0.239662,0.000000,
221200353,0.462106,16.816257,1,0.993713,-0.010193,-0.015686,-0.110413,0.020000,0.030000,-0.240000,0.033037,0.019187,-0.239667,0.224554,0.064520,-0.239667,0.000000,
221209586,-0.186820,16.830187,1,0.993713,-0.010193,-0.015686,-0.110413,0.050000,0.070000,-0.240000,0.071081,0.051630,-0.239336,-0.012855,-0.242745,-0.239340,0.000000,
221229889,0.182748,16.830187,1,0.993713,-0.010193,-0.015686,-0.110413,0.020000,0.030000,-0.250000,0.033326,0.018950,-0.249660,0.096871,-0.104496,-0.249547,0.000000,
221239361,0.183770,16.820900,1,0.993713,-0.010193,-0.015686,-0.110413,0.010000,0.020000,-0.240000,0.021088,0.011624,-0.239834,0.147312,-0.002273,-0.239941,0.000000,
221249196,0.183770,16.820900,1,0.993713,-0.010193,-0.015686,-0.110413,0.020000,0.000000,-0.240000,0.026444,-0.010075,-0.239164,0.168569,0.029156,-0.239172,0.000000,
221265989,0.462106,16.816257,1,0.993713,-0.010193,-0.015686,-0.110413,0.030000,0.010000,-0.250000,0.038682,-0.002750,-0.248990,0.341334,0.267532,-0.248882,0.000000,
221272475,0.462106,16.816257,1,0.993713,-0.010193,-0.015686,-0.110413,0.030000,0.010000,-0.240000,0.038393,-0.002513,-0.238997,0.413707,0.395833,-0.239106,0.000000,
221280549,-0.091987,16.816257,1,0.993713,-0.010193,-0.015686,-0.110413,0.030000,0.010000,-0.240000,0.038393,-0.002513,-0.238997,0.124670,0.018979,-0.238998,0.000000,
221292669,0.183770,16.820900,1,0.993713,-0.010193,-0.015686,-0.110413,0.030000,0.040000,-0.240000,0.044986,0.026750,-0.239501,0.159099,0.055652,-0.239495,0.000000,
221300649,0.552834,16.820900,1,0.993713,-0.010193,-0.015686,-0.110413,0.030000,0.040000,-0.240000,0.044986,0.026750,-0.239501,0.387683,0.373929,-0.239501,0.000000,
221309770,0.277581,16.816257,1,0.993713,-0.010193,-0.015686,-0.110413,0.030000,0.060000,-0.230000,0.049092,0.046495,-0.229844,0.327495,0.295087,-0.229950,0.000000,
221319342,0.368310,16.820900,1,0.993713,-0.010193,-0.015686,-0.110413,0.020000,0.070000,-0.230000,0.041538,0.058440,-0.230346,0.353895,0.321387,-0.230342,0.000000,
221332141,0.921914,16.820900,1,0.993713,-0.010193,-0.015686,-0.110413,0.050000,0.060000,-0.260000,0.069462,0.041401,-0.259154,0.687829,0.726846,-0.258837,0.000000,
221340518,-0.093528,16.825543,1,0.993713,-0.010193,-0.015686,-0.110413,0.030000,0.060000,-0.240000,0.049381,0.046258,-0.239837,0.239882,0.047233,-0.240046,0.000000,
221349644,-0.093528,16.825543,1,0.993713,-0.010193,-0.015686,-0.110413,0.010000,0.020000,-0.230000,0.020799,0.011861,-0.229841,0.047422,-0.201242,-0.229953,0.000000,
221362203,0.275521,16.825543,1,0.993713,-0.010193,-0.015686,-0.110413,0.010000,0.000000,-0.250000,0.016982,-0.008122,-0.249491,0.177280,-0.040546,-0.249275,0.000000,
221370560,-0.000755,16.820900,1,0.993713,-0.010193,-0.015686,-0.110413,-0.010000,0.020000,-0.230000,0.001296,0.016243,-0.230509,0.073531,-0.195138,-0.230716,0.000000,
221379694,-0.093528,16.825543,1,0.993713,-0.010193,-0.015686,-0.110413,0.010000,0.010000,-0.250000,0.019180,0.001633,-0.249659,-0.024890,-0.320189,-0.249450,0.000000,
221392258,0.182748,16.830187,1,0.993713,-0.010193,-0.015686,-0.110413,0.030000,0.030000,-0.240000,0.042788,0.016996,-0.239333,0.091592,-0.174144,-0.239445,0.000000,
221400454,-0.000755,16.820900,1,0.993713,-0.010193,-0.015686,-0.110413,0.030000,0.040000,-0.220000,0.044407,0.027224,-0.219515,0.036534,-0.255258,-0.219735,0.000000,
221409687,-0.186820,16.830187,1,0.993713,-0.010193,-0.015686,-0.110413,0.020000,0.060000,-0.250000,0.039919,0.048212,-0.250164,-0.095007,-0.420486,-0.249829,0.000000,
221422241,0.275521,16.825543,1,0.993713,-0.010193,-0.015686,-0.110413,0.040000,0.030000,-0.230000,0.052250,0.015042,-0.229006,0.114792,-0.156263,-0.229235,0.000000,
221430597,0.368310,16.820900,1,0.993713,-0.010193,-0.015686,-0.110413,-0.010000,0.030000,-0.230000,0.003494,0.025998,-0.230677,0.260734,0.060102,-0.230661,0.000000,
221439732,0.460061,16.825543,1,0.993713,-0.010193,-0.015686,-0.110413,0.020000,0.040000,-0.240000,0.035235,0.028941,-0.239835,0.376575,0.205030,-0.239734,0.000000,
221452300,0.182748,16.830187,1,0.993713,-0.010193,-0.015686,-0.110413,0.030000,0.050000,-0.240000,0.047183,0.036504,-0.239669,0.266613,0.062251,-0.239670,0.000000,
221460492,0.550790,16.830187,1,0.993713,-0.010193,-0.015686,-0.110413,0.020000,0.040000,-0.240000,0.035235,0.028941,-0.239835,0.432147,0.305497,-0.239833,0.000000,
221469723,0.183770,16.820900,1,0.993713,-0.010193,-0.015686,-0.110413,0.050000,0.010000,-0.250000,0.058185,-0.007132,-0.248322,0.291299,0.121270,-0.248228,0.000000,
221482276,0.273476,16.834830,1,0.993713,-0.010193,-0.015686,-0.110413,0.040000,0.020000,-0.230000,0.050053,0.005288,-0.228838,0.282456,0.105497,-0.229052,0.000000,
221490657,-0.279594,16.834830,1,0.993713,-0.010193,-0.015686,-0.110413,0.020000,0.040000,-0.240000,0.035235,0.028941,-0.239835,-0.043178,-0.382407,-0.239716,0.000000,
221499767,-0.095573,16.834830,1,0.993713,-0.010193,-0.015686,-0.110413,0.020000,0.050000,-0.250000,0.037721,0.038458,-0.249996,-0.076983,-0.423566,-0.249883,0.000000,
221512373,-0.002296,16.830187,1,0.993713,-0.010193,-0.015686,-0.110413,0.010000,0.040000,-0.250000,0.025773,0.030895,-0.250163,-0.038980,-0.372702,-0.250159,0.000000,
221520555,0.460061,16.825543,1,0.993713,-0.010193,-0.015686,-0.110413,0.010000,0.050000,-0.240000,0.027681,0.040886,-0.240337,0.247815,0.058249,-0.240446,0.000000,
221529819,-0.188346,16.839473,1,0.993713,-0.010193,-0.015686,-0.110413,0.040000,0.050000,-0.240000,0.056935,0.034313,-0.239335,-0.003956,-0.264681,-0.239347,0.000000,
221542382,-0.003822,16.839473,1,0.993713,-0.010193,-0.015686,-0.110413,0.000000,0.040000,-0.240000,0.015732,0.033323,-0.240504,-0.007222,-0.267605,-0.240491,0.000000,
221550560,0.090997,16.825543,1,0.993713,-0.010193,-0.015686,-0.110413,0.030000,0.040000,-0.230000,0.044697,0.026987,-0.229508,0.047630,-0.184181,-0.229629,0.000000,
221559811,0.367272,16.830187,1,0.993713,-0.010193,-0.015686,-0.110413,0.030000,0.030000,-0.240000,0.042788,0.016996,-0.239333,0.230815,0.048906,-0.239226,0.000000,
221572364,-0.095573,16.834830,1,0.993713,-0.010193,-0.015686,-0.110413,-0.010000,0.020000,-0.210000,0.000718,0.016718,-0.210523,0.041892,-0.191444,-0.210839,0.000000,
221580547,-0.095573,16.834830,1,0.993713,-0.010193,-0.015686,-0.110413,0.020000,0.000000,-0.220000,0.025866,-0.009601,-0.219178,-0.039526,-0.312709,-0.219086,0.000000,
221589768,0.275521,16.825543,1,0.993713,-0.010193,-0.015686,-0.110413,0.020000,0.020000,-0.240000,0.030839,0.009433,-0.239499,0.139820,-0.082667,-0.239274,0.000000,
221602349,0.182748,16.830187,1,0.993713,-0.010193,-0.015686,-0.110413,0.010000,0.030000,-0.250000,0.023575,0.021141,-0.249995,0.163687,-0.054558,-0.249876,0.000000,
221610521,-0.186820,16.830187,1,0.993713,-0.010193,-0.015686,-0.110413,0.010000,0.020000,-0.230000,0.020799,0.011861,-0.229841,-0.040364,-0.361749,-0.230061,0.000000,
221619772,-0.188346,16.839473,1,0.993713,-0.010193,-0.015686,-0.110413,0.020000,0.030000,-0.240000,0.033037,0.019187,-0.239667,-0.129327,-0.473186,-0.239561,0.000000,
221632324,0.367272,16.830187,1,0.993713,-0.010193,-0.015686,-0.110413,0.020000,0.050000,-0.240000,0.037432,0.038695,-0.240003,0.153090,-0.113524,-0.239998,0.000000,
221640700,-0.373389,16.839473,1,0.993713,-0.010193,-0.015686,-0.110413,0.050000,0.040000,-0.230000,0.064199,0.022605,-0.228839,-0.153776,-0.574264,-0.228962,0.000000,
221649797,0.550790,16.830187,1,0.993713,-0.010193,-0.015686,-0.110413,0.020000,0.010000,-0.240000,0.028642,-0.000321,-0.239331,0.248647,-0.049688,-0.239217,0.000000,
221659356,0.550790,16.830187,1,0.993713,-0.010193,-0.015686,-0.110413,0.040000,0.040000,-0.260000,0.055316,0.024084,-0.259153,0.422935,0.167795,-0.258933,0.000000,
221672147,0.087930,16.844117,1,0.993713,-0.010193,-0.015686,-0.110413,0.010000,0.030000,-0.240000,0.023286,0.021378,-0.240002,0.230375,-0.083511,-0.240210,0.000000,
221680529,-0.002296,16.830187,1,0.993713,-0.010193,-0.015686,-0.110413,0.010000,0.000000,-0.230000,0.016404,-0.007647,-0.229505,0.094381,-0.292013,-0.229623,0.000000,
221689762,0.642541,16.834830,1,0.993713,-0.010193,-0.015686,-0.110413,0.000000,0.020000,-0.230000,0.011048,0.014052,-0.230175,0.408990,0.120045,-0.230169,0.000000,
221702323,0.088952,16.834830,1,0.993713,-0.010193,-0.015686,-0.110413,0.010000,0.000000,-0.240000,0.016693,-0.007884,-0.239498,0.224569,-0.119190,-0.239395,0.000000,
221710708,0.367272,16.830187,1,0.993713,-0.010193,-0.015686,-0.110413,0.040000,0.020000,-0.250000,0.050631,0.004813,-0.248824,0.306494,0.003824,-0.248720,0.000000,
221719833,0.182748,16.830187,1,0.993713,-0.010193,-0.015686,-0.110413,0.030000,0.020000,-0.240000,0.040591,0.007242,-0.239165,0.234909,-0.091310,-0.239270,0.000000,
221732385,-0.188346,16.839473,1,0.993713,-0.010193,-0.015686,-0.110413,-0.010000,0.030000,-0.230000,0.003494,0.025998,-0.230677,-0.012048,-0.403906,-0.230772,0.000000,
221740565,0.367272,16.830187,1,0.993713,-0.010193,-0.015686,-0.110413,0.050000,0.050000,-0.220000,0.066107,0.032596,-0.219014,0.204992,-0.074178,-0.219144,0.000000,
221749771,0.180703,16.839473,1,0.993713,-0.010193,-0.015686,-0.110413,0.030000,0.020000,-0.230000,0.040301,0.007479,-0.229172,0.190248,-0.094294,-0.229062,0.000000,
221762343,-0.003822,16.839473,1,0.993713,-0.010193,-0.015686,-0.110413,0.020000,0.030000,-0.250000,0.033326,0.018950,-0.249660,0.076342,-0.239415,-0.249433,0.000000,
221770571,-0.371329,16.830187,1,0.993713,-0.010193,-0.015686,-0.110413,0.020000,0.020000,-0.240000,0.030839,0.009433,-0.239499,-0.185724,-0.633281,-0.239609,0.000000,
221779802,0.273476,16.834830,1,0.993713,-0.010193,-0.015686,-0.110413,0.040000,0.020000,-0.230000,0.050053,0.005288,-0.228838,0.074110,-0.293553,-0.228957,0.000000,
221792432,-0.002296,16.830187,1,0.993713,-0.010193,-0.015686,-0.110413,0.010000,0.000000,-0.240000,0.016693,-0.007884,-0.239498,0.026004,-0.352688,-0.239382,0.000000,
221800610,0.182748,16.830187,1,0.993713,-0.010193,-0.015686,-0.110413,0.000000,0.020000,-0.250000,0.011626,0.013578,-0.250161,0.114185,-0.216875,-0.250042,0.000000,
221809843,-0.741904,16.839473,1,0.993713,-0.010193,-0.015686,-0.110413,0.050000,0.020000,-0.240000,0.060093,0.002859,-0.238497,-0.383149,-0.856176,-0.238624,0.000000,
221822398,0.088952,16.834830,1,0.993713,-0.010193,-0.015686,-0.110413,0.030000,0.050000,-0.240000,0.047183,0.036504,-0.239669,-0.119727,-0.512359,-0.239657,0.000000,
221830559,-0.003822,16.839473,1,0.993713,-0.010193,-0.015686,-0.110413,0.030000,0.030000,-0.240000,0.042788,0.016996,-0.239333,-0.056582,-0.412691,-0.239337,0.000000,
221839782,0.460061,16.825543,1,0.993713,-0.010193,-0.015686,-0.110413,0.040000,0.040000,-0.250000,0.055026,0.024321,-0.249160,0.238497,-0.031340,-0.249051,0.000000,
221852343,0.182748,16.830187,1,0.993713,-0.010193,-0.015686,-0.110413,0.010000,0.040000,-0.250000,0.025773,0.030895,-0.250163,0.205706,-0.075395,-0.250150,0.000000,
221860728,-0.002296,16.830187,1,0.993713,-0.010193,-0.015686,-0.110413,0.040000,0.050000,-0.240000,0.056935,0.034313,-0.239335,0.084186,-0.259856,-0.239454,0.000000,
221869854,-0.186820,16.830187,1,0.993713,-0.010193,-0.015686,-0.110413,0.030000,0.030000,-0.230000,0.042499,0.017233,-0.229340,-0.075027,-0.465989,-0.229452,0.000000,
221882409,-0.186820,16.830187,1,0.993713,-0.010193,-0.015686,-0.110413,0.030000,0.040000,-0.250000,0.045275,0.026513,-0.249494,-0.145823,-0.551190,-0.249273,0.000000,
221890569,0.460061,16.825543,1,0.993713,-0.010193,-0.015686,-0.110413,0.020000,0.040000,-0.260000,0.035813,0.028466,-0.259821,0.201657,-0.021776,-0.259705,0.000000,
221899823,-0.002296,16.830187,1,0.993713,-0.010193,-0.015686,-0.110413,-0.010000,0.010000,-0.240000,-0.000612,0.006252,-0.240334,0.083445,-0.175587,-0.240548,0.000000,
221912402,0.273476,16.834830,1,0.993713,-0.010193,-0.015686,-0.110413,0.030000,0.030000,-0.240000,0.042788,0.016996,-0.239333,0.191593,-0.038725,-0.239346,0.000000,
221920594,-0.003822,16.839473,1,0.993713,-0.010193,-0.015686,-0.110413,0.020000,0.040000,-0.240000,0.035235,0.028941,-0.239835,0.077727,-0.212564,-0.239830,0.000000,
221929824,-0.464103,16.834830,1,0.993713,-0.010193,-0.015686,-0.110413,0.030000,0.040000,-0.230000,0.044697,0.026987,-0.229508,-0.237751,-0.618795,-0.229622,0.000000,
221942507,-0.002296,16.830187,1,0.993713,-0.010193,-0.015686,-0.110413,0.030000,0.040000,-0.240000,0.044986,0.026750,-0.239501,-0.108840,-0.448464,-0.239392,0.000000,
221950665,0.550790,16.830187,1,0.993713,-0.010193,-0.015686,-0.110413,0.020000,0.060000,-0.240000,0.039630,0.048449,-0.240171,0.270816,0.133003,-0.240163,0.000000,
221959889,-0.097114,16.844117,1,0.993713,-0.010193,-0.015686,-0.110413,-0.010000,0.030000,-0.240000,0.003783,0.025760,-0.240670,0.059142,-0.143887,-0.240665,0.000000,
221972442,-0.002296,16.830187,1,0.993713,-0.010193,-0.015686,-0.110413,0.040000,0.060000,-0.250000,0.059421,0.043830,-0.249496,0.021632,-0.192266,-0.249398,0.000000,
221980624,-0.095573,16.834830,1,0.993713,-0.010193,-0.015686,-0.110413,0.010000,0.040000,-0.230000,0.025194,0.031369,-0.230177,-0.048045,-0.297181,-0.230388,0.000000,
221989857,0.367272,16.830187,1,0.993713,-0.010193,-0.015686,-0.110413,0.030000,0.030000,-0.240000,0.042788,0.016996,-0.239333,0.189502,0.010241,-0.239234,0.000000,
221999424,-0.097114,16.844117,1,0.993713,-0.010193,-0.015686,-0.110413,0.050000,0.020000,-0.240000,0.060093,0.002859,-0.238497,0.023747,-0.203190,-0.238505,0.000000,
222012283,0.088952,16.834830,1,0.993713,-0.010193,-0.015686,-0.110413,0.020000,0.010000,-0.240000,0.028642,-0.000321,-0.239331,0.059022,-0.157456,-0.239322,0.000000,
222020669,0.273476,16.834830,1,0.993713,-0.010193,-0.015686,-0.110413,0.030000,0.010000,-0.240000,0.038393,-0.002513,-0.238997,0.182434,0.033250,-0.239001,0.000000,
222029902,0.182748,16.830187,1,0.993713,-0.010193,-0.015686,-0.110413,0.020000,0.040000,-0.230000,0.034945,0.029178,-0.229842,0.182913,0.031367,-0.229943,0.000000,
222042505,0.088952,16.834830,1,0.993713,-0.010193,-0.015686,-0.110413,0.030000,0.060000,-0.240000,0.049381,0.046258,-0.239837,0.128692,-0.041600,-0.239728,0.000000,
222050665,0.088952,16.834830,1,0.993713,-0.010193,-0.015686,-0.110413,0.010000,0.050000,-0.220000,0.027102,0.041361,-0.220351,0.105251,-0.078573,-0.220565,0.000000,
222059875,0.088952,16.834830,1,0.993713,-0.010193,-0.015686,-0.110413,0.030000,0.040000,-0.240000,0.044986,0.026750,-0.239501,0.095086,-0.092961,-0.239292,0.000000,
222072600,0.273476,16.834830,1,0.993713,-0.010193,-0.015686,-0.110413,0.020000,0.030000,-0.230000,0.032748,0.019424,-0.229674,0.197520,0.035556,-0.229780,0.000000,
222080765,0.273476,16.834830,1,0.993713,-0.010193,-0.015686,-0.110413,0.040000,0.010000,-0.240000,0.048144,-0.004704,-0.238663,0.241947,0.101016,-0.238565,0.000000,
222089923,-0.188346,16.839473,1,0.993713,-0.010193,-0.015686,-0.110413,0.020000,0.020000,-0.230000,0.030550,0.009670,-0.229506,-0.006110,-0.223235,-0.229606,0.000000,
222102476,-0.557899,16.839473,1,0.993713,-0.010193,-0.015686,-0.110413,0.040000,0.030000,-0.220000,0.051961,0.015279,-0.219013,-0.329393,-0.631600,-0.219130,0.000000,
222110843,-0.002296,16.830187,1,0.993713,-0.010193,-0.015686,-0.110413,0.030000,-0.010000,-0.260000,0.034576,-0.022495,-0.258647,-0.144591,-0.346122,-0.258212,0.000000,
222119968,0.365228,16.839473,1,0.993713,-0.010193,-0.015686,-0.110413,0.040000,0.020000,-0.240000,0.050342,0.005050,-0.238831,0.147282,0.036295,-0.239044,0.000000,
222132549,0.367272,16.830187,1,0.993713,-0.010193,-0.015686,-0.110413,0.010000,0.040000,-0.240000,0.025483,0.031132,-0.240170,0.275494,0.195219,-0.240157,0.000000,
222140732,0.273476,16.834830,1,0.993713,-0.010193,-0.015686,-0.110413,0.030000,0.010000,-0.240000,0.038393,-0.002513,-0.238997,0.275911,0.191486,-0.239010,0.000000,
222149967,0.088952,16.834830,1,0.993713,-0.010193,-0.015686,-0.110413,0.020000,0.040000,-0.270000,0.036102,0.028229,-0.269814,0.169488,0.049315,-0.269475,0.000000,
222162543,0.182748,16.830187,1,0.993713,-0.010193,-0.015686,-0.110413,0.010000,0.050000,-0.250000,0.027970,0.040649,-0.250330,0.177791,0.055954,-0.250541,0.000000,
222170839,-0.095573,16.834830,1,0.993713,-0.010193,-0.015686,-0.110413,0.010000,0.050000,-0.240000,0.027681,0.040886,-0.240337,0.019379,-0.187151,-0.240450,0.000000,
222179966,0.088952,16.834830,1,0.993713,-0.010193,-0.015686,-0.110413,0.050000,0.040000,-0.240000,0.064488,0.022367,-0.238832,0.057921,-0.136973,-0.238850,0.000000,
222192531,-0.279594,16.834830,1,0.993713,-0.010193,-0.015686,-0.110413,0.050000,0.040000,-0.240000,0.064488,0.022367,-0.238832,-0.139845,-0.388295,-0.238833,0.000000,
222200915,0.180703,16.839473,1,0.993713,-0.010193,-0.015686,-0.110413,0.030000,0.010000,-0.240000,0.038393,-0.002513,-0.238997,0.043193,-0.107997,-0.238995,0.000000,
222210060,0.458001,16.834830,1,0.993713,-0.010193,-0.015686,-0.110413,0.020000,0.000000,-0.240000,0.026444,-0.010075,-0.239164,0.282273,0.203409,-0.239162,0.000000,
222230329,-0.279594,16.834830,1,0.993713,-0.010193,-0.015686,-0.110413,0.030000,0.010000,-0.250000,0.038682,-0.002750,-0.248990,-0.043213,-0.216317,-0.248882,0.000000,
222239772,-0.002296,16.830187,1,0.993713,-0.010193,-0.015686,-0.110413,-0.020000,0.020000,-0.240000,-0.008166,0.018197,-0.240836,-0.021040,-0.169090,-0.240925,0.000000,
222249592,0.182748,16.830187,1,0.993713,-0.010193,-0.015686,-0.110413,0.020000,0.040000,-0.240000,0.035235,0.028941,-0.239835,0.096310,0.018356,-0.239847,0.000000,
222262387,-0.002296,16.830187,1,0.993713,-0.010193,-0.015686,-0.110413,0.010000,0.050000,-0.250000,0.027970,0.040649,-0.250330,0.038959,-0.066760,-0.250215,0.000000,
222270808,0.090997,16.825543,1,0.993713,-0.010193,-0.015686,-0.110413,0.050000,0.060000,-0.250000,0.069173,0.041638,-0.249161,0.068692,-0.021241,-0.249173,0.000000,
222280046,-0.186820,16.830187,1,0.993713,-0.010193,-0.015686,-0.110413,0.030000,0.060000,-0.240000,0.049381,0.046258,-0.239837,-0.079490,-0.218078,-0.239940,0.000000,
222292664,0.182748,16.830187,1,0.993713,-0.010193,-0.015686,-0.110413,0.010000,0.040000,-0.250000,0.025773,0.030895,-0.250163,0.070075,-0.028959,-0.250050,0.000000,
222300838,0.183770,16.820900,1,0.993713,-0.010193,-0.015686,-0.110413,0.030000,0.040000,-0.250000,0.045275,0.026513,-0.249494,0.135872,0.067553,-0.249500,0.000000,
222310061,0.182748,16.830187,1,0.993713,-0.010193,-0.015686,-0.110413,0.030000,0.030000,-0.250000,0.043077,0.016758,-0.249326,0.163596,0.099529,-0.249328,0.000000,
222322616,-0.279594,16.834830,1,0.993713,-0.010193,-0.015686,-0.110413,-0.010000,0.040000,-0.240000,0.005981,0.035514,-0.240838,-0.092450,-0.222810,-0.240932,0.000000,
222330992,0.088952,16.834830,1,0.993713,-0.010193,-0.015686,-0.110413,0.010000,0.040000,-0.240000,0.025483,0.031132,-0.240170,0.011043,-0.068810,-0.240178,0.000000,
222340114,-0.279594,16.834830,1,0.993713,-0.010193,-0.015686,-0.110413,0.000000,0.050000,-0.260000,0.018508,0.042603,-0.260658,-0.157715,-0.285654,-0.260432,0.000000,
222349709,0.180703,16.839473,1,0.993713,-0.010193,-0.015686,-0.110413,0.030000,0.020000,-0.230000,0.040301,0.007479,-0.229172,0.035258,-0.044256,-0.229517,0.000000,
222362496,-0.373389,16.839473,1,0.993713,-0.010193,-0.015686,-0.110413,0.030000,0.060000,-0.260000,0.049959,0.045784,-0.259823,-0.202759,-0.347430,-0.259489,0.000000,
222370847,-0.002296,16.830187,1,0.993713,-0.010193,-0.015686,-0.110413,0.030000,0.050000,-0.240000,0.047183,0.036504,-0.239669,-0.089148,-0.173471,-0.239887,0.000000,
222380081,0.273476,16.834830,1,0.993713,-0.010193,-0.015686,-0.110413,0.030000,0.050000,-0.230000,0.046894,0.036741,-0.229676,0.119091,0.094772,-0.229788,0.000000,
222392727,-0.281638,16.844117,1,0.993713,-0.010193,-0.015686,-0.110413,0.030000,0.040000,-0.250000,0.045275,0.026513,-0.249494,-0.112468,-0.200598,-0.249277,0.000000,
222400909,0.365228,16.839473,1,0.993713,-0.010193,-0.015686,-0.110413,0.040000,0.030000,-0.250000,0.052829,0.014567,-0.248992,0.163381,0.213131,-0.248995,0.000000,
222410140,0.088952,16.834830,1,0.993713,-0.010193,-0.015686,-0.110413,0.040000,0.060000,-0.220000,0.058554,0.044541,-0.219517,0.122285,0.156354,-0.219841,0.000000,
222422723,0.642541,16.834830,1,0.993713,-0.010193,-0.015686,-0.110413,0.000000,0.030000,-0.230000,0.013245,0.023806,-0.230343,0.426310,0.530916,-0.230227,0.000000,
222431078,-0.095573,16.834830,1,0.993713,-0.010193,-0.015686,-0.110413,0.030000,0.020000,-0.240000,0.040591,0.007242,-0.239165,0.127543,0.076419,-0.239067,0.000000,
222440201,-0.373389,16.839473,1,0.993713,-0.010193,-0.015686,-0.110413,0.030000,0.030000,-0.220000,0.042210,0.017470,-0.219347,-0.161570,-0.297454,-0.219564,0.000000,
222452754,-0.188346,16.839473,1,0.993713,-0.010193,-0.015686,-0.110413,0.030000,0.020000,-0.250000,0.040880,0.007004,-0.249158,-0.180869,-0.319974,-0.248832,0.000000,
222460935,-0.003822,16.839473,1,0.993713,-0.010193,-0.015686,-0.110413,0.020000,0.030000,-0.250000,0.033326,0.018950,-0.249660,-0.080670,-0.168672,-0.249651,0.000000,
222470156,-0.186820,16.830187,1,0.993713,-0.010193,-0.015686,-0.110413,0.010000,0.040000,-0.230000,0.025194,0.031369,-0.230177,-0.143634,-0.248817,-0.230391,0.000000,
222482780,-0.003822,16.839473,1,0.993713,-0.010193,-0.015686,-0.110413,0.020000,0.040000,-0.220000,0.034656,0.029415,-0.219849,-0.065609,-0.150057,-0.219965,0.000000,
222490959,0.180703,16.839473,1,0.993713,-0.010193,-0.015686,-0.110413,0.020000,0.040000,-0.260000,0.035813,0.028466,-0.259821,0.076234,0.062345,-0.259382,0.000000,
222500176,-0.003822,16.839473,1,0.993713,-0.010193,-0.015686,-0.110413,0.010000,0.050000,-0.230000,0.027392,0.041123,-0.230344,0.030490,0.001177,-0.230664,0.000000,
222512847,-0.003822,16.839473,1,0.993713,-0.010193,-0.015686,-0.110413,0.030000,0.030000,-0.230000,0.042499,0.017233,-0.229340,0.010561,-0.026698,-0.229355,0.000000,
222521027,0.458001,16.834830,1,0.993713,-0.010193,-0.015686,-0.110413,0.020000,-0.020000,-0.240000,0.022049,-0.029584,-0.238828,0.270280,0.362595,-0.238723,0.000000,
222530261,-0.005882,16.848760,1,0.993713,-0.010193,-0.015686,-0.110413,0.020000,0.000000,-0.240000,0.026444,-0.010075,-0.239164,0.113855,0.156164,-0.239159,0.000000,
222542809,-0.281638,16.844117,1,0.993713,-0.010193,-0.015686,-0.110413,0.020000,0.020000,-0.250000,0.031129,0.009195,-0.249492,-0.113863,-0.135604,-0.249379,0.000000,
222551177,-0.558921,16.848760,1,0.993713,-0.010193,-0.015686,-0.110413,0.040000,0.020000,-0.210000,0.049474,0.005762,-0.208852,-0.373593,-0.524834,-0.209298,0.000000,
222560303,-0.005882,16.848760,1,0.993713,-0.010193,-0.015686,-0.110413,0.030000,0.020000,-0.240000,0.040591,0.007242,-0.239165,-0.165637,-0.252479,-0.238836,0.000000,
222572938,-0.003822,16.839473,1,0.993713,-0.010193,-0.015686,-0.110413,0.040000,0.020000,-0.270000,0.051210,0.004339,-0.268810,-0.074880,-0.137989,-0.268480,0.000000,
222581117,0.273476,16.834830,1,0.993713,-0.010193,-0.015686,-0.110413,0.040000,0.030000,-0.220000,0.051961,0.015279,-0.219013,0.126360,0.164856,-0.219558,0.000000,
222590351,0.365228,16.839473,1,0.993713,-0.010193,-0.015686,-0.110413,0.020000,0.040000,-0.250000,0.035524,0.028704,-0.249828,0.266062,0.339394,-0.249495,0.000000,
222602896,-0.097114,16.844117,1,0.993713,-0.010193,-0.015686,-0.110413,0.040000,0.030000,-0.240000,0.052540,0.014804,-0.238999,0.059401,0.070873,-0.239114,0.000000,
222611060,0.087930,16.844117,1,0.993713,-0.010193,-0.015686,-0.110413,0.030000,0.040000,-0.240000,0.044986,0.026750,-0.239501,0.076543,0.093802,-0.239497,0.000000,
222620282,0.272454,16.844117,1,0.993713,-0.010193,-0.015686,-0.110413,0.020000,0.030000,-0.230000,0.032748,0.019424,-0.229674,0.190729,0.236504,-0.229783,0.000000,
222632960,0.180703,16.839473,1,0.993713,-0.010193,-0.015686,-0.110413,0.050000,0.010000,-0.220000,0.057317,-0.006420,-0.218343,0.187887,0.226410,-0.218469,0.000000,
222641138,-0.466163,16.844117,1,0.993713,-0.010193,-0.015686,-0.110413,0.020000,0.020000,-0.250000,0.031129,0.009195,-0.249492,-0.190293,-0.350237,-0.249151,0.000000,
222650369,-0.190406,16.848760,1,0.993713,-0.010193,-0.015686,-0.110413,0.030000,0.030000,-0.250000,0.043077,0.016758,-0.249326,-0.193602,-0.352623,-0.249324,0.000000,
222662969,0.458001,16.834830,1,0.993713,-0.010193,-0.015686,-0.110413,0.020000,0.030000,-0.240000,0.033037,0.019187,-0.239667,0.180377,0.121907,-0.239774,0.000000,
222671131,-0.281638,16.844117,1,0.993713,-0.010193,-0.015686,-0.110413,0.030000,0.030000,-0.240000,0.042788,0.016996,-0.239333,-0.087048,-0.285025,-0.239338,0.000000,
222680365,0.550790,16.830187,1,0.993713,-0.010193,-0.015686,-0.110413,0.020000,0.020000,-0.250000,0.031129,0.009195,-0.249492,0.279320,0.185690,-0.249380,0.000000,
222689952,-0.281638,16.844117,1,0.993713,-0.010193,-0.015686,-0.110413,0.050000,0.040000,-0.240000,0.064488,0.022367,-0.238832,-0.043466,-0.227726,-0.238949,0.000000,
222702852,-0.373389,16.839473,1,0.993713,-0.010193,-0.015686,-0.110413,0.030000,0.010000,-0.260000,0.038972,-0.002987,-0.258983,-0.238222,-0.477080,-0.258762,0.000000,
222711209,-0.003822,16.839473,1,0.993713,-0.010193,-0.015686,-0.110413,0.040000,0.050000,-0.230000,0.056645,0.034550,-0.229342,-0.105885,-0.268908,-0.229666,0.000000,
222720438,0.180703,16.839473,1,0.993713,-0.010193,-0.015686,-0.110413,0.030000,0.030000,-0.240000,0.042788,0.016996,-0.239333,0.057540,-0.053580,-0.239227,0.000000,
222732992,0.087930,16.844117,1,0.993713,-0.010193,-0.015686,-0.110413,0.030000,0.060000,-0.240000,0.049381,0.046258,-0.239837,0.074503,-0.034087,-0.239830,0.000000,
222741220,-0.188346,16.839473,1,0.993713,-0.010193,-0.015686,-0.110413,0.010000,0.030000,-0.240000,0.023286,0.021378,-0.240002,-0.078517,-0.267047,-0.240000,0.000000,
222750451,-0.190406,16.848760,1,0.993713,-0.010193,-0.015686,-0.110413,0.040000,0.040000,-0.250000,0.055026,0.024321,-0.249160,-0.145735,-0.352828,-0.249059,0.000000,
222763003,0.273476,16.834830,1,0.993713,-0.010193,-0.015686,-0.110413,0.020000,0.040000,-0.260000,0.035813,0.028466,-0.259821,0.093295,-0.047820,-0.259703,0.000000,
222771378,0.180703,16.839473,1,0.993713,-0.010193,-0.015686,-0.110413,0.020000,0.060000,-0.250000,0.039919,0.048212,-0.250164,0.143682,0.026734,-0.250269,0.000000,
222780503,-0.558921,16.848760,1,0.993713,-0.010193,-0.015686,-0.110413,0.020000,0.020000,-0.240000,0.030839,0.009433,-0.239499,-0.262671,-0.503822,-0.239618,0.000000,
222793076,0.640496,16.844117,1,0.993713,-0.010193,-0.015686,-0.110413,0.030000,0.030000,-0.240000,0.042788,0.016996,-0.239333,0.255501,0.155523,-0.239336,0.000000,
222801258,-0.003822,16.839473,1,0.993713,-0.010193,-0.015686,-0.110413,0.030000,0.030000,-0.250000,0.043077,0.016758,-0.249326,0.106106,-0.074023,-0.249216,0.000000,
222810490,-0.373389,16.839473,1,0.993713,-0.010193,-0.015686,-0.110413,0.020000,0.030000,-0.240000,0.033037,0.019187,-0.239667,-0.172010,-0.432942,-0.239773,0.000000,
222823049,-0.003822,16.839473,1,0.993713,-0.010193,-0.015686,-0.110413,0.020000,0.060000,-0.240000,0.039630,0.048449,-0.240171,-0.079784,-0.312336,-0.240167,0.000000,
222831426,-0.281638,16.844117,1,0.993713,-0.010193,-0.015686,-0.110413,0.040000,0.040000,-0.250000,0.055026,0.024321,-0.249160,-0.199717,-0.491612,-0.249061,0.000000,
222840550,0.087930,16.844117,1,0.993713,-0.010193,-0.015686,-0.110413,0.050000,0.040000,-0.240000,0.064488,0.022367,-0.238832,-0.037751,-0.277206,-0.238945,0.000000,
222853158,-0.097114,16.844117,1,0.993713,-0.010193,-0.015686,-0.110413,0.050000,0.050000,-0.240000,0.066686,0.032122,-0.239000,-0.075743,-0.323805,-0.239000,0.000000,
222861315,0.270394,16.853403,1,0.993713,-0.010193,-0.015686,-0.110413,0.020000,0.020000,-0.240000,0.030839,0.009433,-0.239499,0.122716,-0.021209,-0.239494,0.000000,
222870550,-0.097114,16.844117,1,0.993713,-0.010193,-0.015686,-0.110413,0.010000,0.030000,-0.240000,0.023286,0.021378,-0.240002,-0.004679,-0.187042,-0.239996,0.000000,
222883112,-0.466163,16.844117,1,0.993713,-0.010193,-0.015686,-0.110413,0.000000,0.030000,-0.240000,0.013534,0.023569,-0.240336,-0.275081,-0.529603,-0.240332,0.000000,
222891470,0.087930,16.844117,1,0.993713,-0.010193,-0.015686,-0.110413,0.030000,0.030000,-0.240000,0.042788,0.016996,-0.239333,-0.068551,-0.212579,-0.239344,0.000000,
222900595,0.363686,16.848760,1,0.993713,-0.010193,-0.015686,-0.110413,0.040000,0.020000,-0.250000,0.050631,0.004813,-0.248824,0.179633,0.110599,-0.248719,0.000000,
222913140,-0.005882,16.848760,1,0.993713,-0.010193,-0.015686,-0.110413,0.010000,0.030000,-0.250000,0.023575,0.021141,-0.249995,0.073260,-0.028830,-0.249981,0.000000,
222921490,0.180703,16.839473,1,0.993713,-0.010193,-0.015686,-0.110413,0.000000,0.020000,-0.250000,0.011626,0.013578,-0.250161,0.135448,0.063401,-0.250159,0.000000,
222930611,-0.190406,16.848760,1,0.993713,-0.010193,-0.015686,-0.110413,0.040000,0.040000,-0.240000,0.054737,0.024559,-0.239167,-0.052548,-0.183936,-0.239288,0.000000,
222943153,0.179162,16.848760,1,0.993713,-0.010193,-0.015686,-0.110413,0.020000,0.060000,-0.240000,0.039630,0.048449,-0.240171,0.079693,-0.016771,-0.240161,0.000000,
222951529,-0.005882,16.848760,1,0.993713,-0.010193,-0.015686,-0.110413,0.020000,0.020000,-0.250000,0.031129,0.009195,-0.249492,0.029813,-0.093986,-0.249390,0.000000,
222960644,0.088952,16.834830,1,0.993713,-0.010193,-0.015686,-0.110413,0.020000,0.010000,-0.240000,0.028642,-0.000321,-0.239331,0.063170,-0.051596,-0.239442,0.000000,
222973205,-0.005882,16.848760,1,0.993713,-0.010193,-0.015686,-0.110413,0.030000,0.030000,-0.240000,0.042788,0.016996,-0.239333,0.022399,-0.105349,-0.239334,0.000000,
222981396,0.458001,16.834830,1,0.993713,-0.010193,-0.015686,-0.110413,0.010000,0.010000,-0.260000,0.019469,0.001395,-0.259652,0.274614,0.275479,-0.259428,0.000000,
222990628,0.272454,16.844117,1,0.993713,-0.010193,-0.015686,-0.110413,0.020000,0.040000,-0.260000,0.035813,0.028466,-0.259821,0.275896,0.271469,-0.259817,0.000000,
223003167,-0.190406,16.848760,1,0.993713,-0.010193,-0.015686,-0.110413,0.000000,0.020000,-0.240000,0.011337,0.013815,-0.240168,0.008444,-0.075296,-0.240384,0.000000,
223011542,0.179162,16.848760,1,0.993713,-0.010193,-0.015686,-0.110413,0.020000,0.040000,-0.240000,0.035235,0.028941,-0.239835,0.107021,0.072828,-0.239841,0.000000,
223020657,0.272454,16.844117,1,0.993713,-0.010193,-0.015686,-0.110413,0.020000,0.040000,-0.240000,0.035235,0.028941,-0.239835,0.203414,0.195478,-0.239835,0.000000,
223033215,-0.098655,16.853403,1,0.993713,-0.010193,-0.015686,-0.110413,0.040000,0.010000,-0.230000,0.047855,-0.004467,-0.228670,0.030412,-0.029607,-0.228793,0.000000,
223041602,-0.097114,16.844117,1,0.993713,-0.010193,-0.015686,-0.110413,0.020000,0.030000,-0.240000,0.033037,0.019187,-0.239667,-0.043961,-0.143810,-0.239547,0.000000,
223050728,0.272454,16.844117,1,0.993713,-0.010193,-0.015686,-0.110413,0.030000,0.040000,-0.260000,0.045564,0.026275,-0.259487,0.137839,0.092834,-0.259267,0.000000,
223060303,0.085870,16.853403,1,0.993713,-0.010193,-0.015686,-0.110413,0.020000,0.020000,-0.220000,0.030261,0.009907,-0.219513,0.108647,0.052455,-0.219951,0.000000,
223073074,-0.005882,16.848760,1,0.993713,-0.010193,-0.015686,-0.110413,0.030000,0.020000,-0.240000,0.040591,0.007242,-0.239165,0.042721,-0.036423,-0.238953,0.000000,
223081460,0.734292,16.839473,1,0.993713,-0.010193,-0.015686,-0.110413,0.030000,0.020000,-0.260000,0.041169,0.006767,-0.259151,0.444612,0.580851,-0.258929,0.000000,
223090690,-0.003822,16.839473,1,0.993713,-0.010193,-0.015686,-0.110413,0.050000,0.010000,-0.250000,0.058185,-0.007132,-0.248322,0.190326,0.236662,-0.248439,0.000000,
223103378,0.087930,16.844117,1,0.993713,-0.010193,-0.015686,-0.110413,0.030000,0.040000,-0.240000,0.044986,0.026750,-0.239501,0.133805,0.157391,-0.239599,0.000000,
223111557,0.088952,16.834830,1,0.993713,-0.010193,-0.015686,-0.110413,0.020000,0.040000,-0.240000,0.035235,0.028941,-0.239835,0.109014,0.115530,-0.239833,0.000000,
223120784,-0.003822,16.839473,1,0.993713,-0.010193,-0.015686,-0.110413,0.010000,0.040000,-0.230000,0.025194,0.031369,-0.230177,0.044772,0.028725,-0.230283,0.000000,
223133416,-0.468208,16.853403,1,0.993713,-0.010193,-0.015686,-0.110413,0.010000,0.040000,-0.240000,0.025483,0.031132,-0.240170,-0.252894,-0.353522,-0.240061,0.000000,
223141627,0.365228,16.839473,1,0.993713,-0.010193,-0.015686,-0.110413,0.030000,0.030000,-0.240000,0.042788,0.016996,-0.239333,0.103421,0.191497,-0.239341,0.000000,
223150749,0.272454,16.844117,1,0.993713,-0.010193,-0.015686,-0.110413,0.010000,0.030000,-0.250000,0.023575,0.021141,-0.249995,0.202961,0.315990,-0.249877,0.000000,
223163403,0.272454,16.844117,1,0.993713,-0.010193,-0.015686,-0.110413,0.020000,0.040000,-0.230000,0.034945,0.029178,-0.229842,0.247305,0.364118,-0.230063,0.000000,
223171563,0.918847,16.839473,1,0.993713,-0.010193,-0.015686,-0.110413,0.020000,0.030000,-0.240000,0.033037,0.019187,-0.239667,0.640493,0.955836,-0.239561,0.000000,
223180774,0.549767,16.839473,1,0.993713,-0.010193,-0.015686,-0.110413,0.020000,0.030000,-0.250000,0.033326,0.018950,-0.249660,0.596791,0.885720,-0.249549,0.000000,
223193443,0.085870,16.853403,1,0.993713,-0.010193,-0.015686,-0.110413,0.010000,0.050000,-0.240000,0.027681,0.040886,-0.240337,0.311191,0.505881,-0.240439,0.000000,
223201629,-0.743446,16.848760,1,0.993713,-0.010193,-0.015686,-0.110413,0.020000,0.040000,-0.240000,0.035235,0.028941,-0.239835,-0.297590,-0.430607,-0.239842,0.000000,
223210851,-0.097114,16.844117,1,0.993713,-0.010193,-0.015686,-0.110413,0.040000,0.040000,-0.230000,0.054448,0.024796,-0.229174,-0.185561,-0.282449,-0.229291,0.000000,
223231071,-0.283179,16.853403,1,0.993713,-0.010193,-0.015686,-0.110413,0.050000,0.040000,-0.240000,0.064488,0.022367,-0.238832,-0.248577,-0.359407,-0.238727,0.000000,
223240507,0.273476,16.834830,1,0.993713,-0.010193,-0.015686,-0.110413,0.030000,0.030000,-0.260000,0.043367,0.016521,-0.259319,0.057083,0.268950,-0.259092,0.000000,
223250338,0.640496,16.844117,1,0.993713,-0.010193,-0.015686,-0.110413,0.040000,0.020000,-0.240000,0.050342,0.005050,-0.238831,0.400450,0.809546,-0.239054,0.000000,
223264622,0.180703,16.839473,1,0.993713,-0.010193,-0.015686,-0.110413,0.020000,0.030000,-0.240000,0.033037,0.019187,-0.239667,0.283429,0.623498,-0.239661,0.000000,
223272232,-0.095573,16.834830,1,0.993713,-0.010193,-0.015686,-0.110413,0.020000,0.030000,-0.240000,0.033037,0.019187,-0.239667,0.067101,0.250991,-0.239667,0.000000,
223281115,0.273476,16.834830,1,0.993713,-0.010193,-0.015686,-0.110413,0.040000,0.030000,-0.220000,0.051961,0.015279,-0.219013,0.188743,0.404325,-0.219240,0.000000,
223293576,0.458001,16.834830,1,0.993713,-0.010193,-0.015686,-0.110413,0.020000,0.040000,-0.240000,0.035235,0.028941,-0.239835,0.350005,0.593385,-0.239608,0.000000,
223301776,0.182748,16.830187,1,0.993713,-0.010193,-0.015686,-0.110413,0.020000,0.050000,-0.240000,0.037432,0.038695,-0.240003,0.257770,0.449057,-0.239999,0.000000,
223310919,0.182748,16.830187,1,0.993713,-0.010193,-0.015686,-0.110413,0.030000,0.040000,-0.250000,0.045275,0.026513,-0.249494,0.218488,0.392348,-0.249389,0.000000,
223323491,0.272454,16.844117,1,0.993713,-0.010193,-0.015686,-0.110413,0.010000,0.030000,-0.250000,0.023575,0.021141,-0.249995,0.254721,0.427760,-0.249988,0.000000,
223331849,0.365228,16.839473,1,0.993713,-0.010193,-0.015686,-0.110413,0.020000,0.040000,-0.230000,0.034945,0.029178,-0.229842,0.322469,0.520659,-0.230064,0.000000,
223340992,-0.097114,16.844117,1,0.993713,-0.010193,-0.015686,-0.110413,0.030000,0.060000,-0.250000,0.049670,0.046021,-0.249830,0.084520,0.209480,-0.249612,0.000000,
223350598,-0.466163,16.844117,1,0.993713,-0.010193,-0.015686,-0.110413,0.020000,0.030000,-0.240000,0.033037,0.019187,-0.239667,-0.231973,-0.189257,-0.239777,0.000000,
223363463,-0.190406,16.848760,1,0.993713,-0.010193,-0.015686,-0.110413,0.010000,0.020000,-0.230000,0.020799,0.011861,-0.229841,-0.210273,-0.161697,-0.229950,0.000000,
223371838,0.273476,16.834830,1,0.993713,-0.010193,-0.015686,-0.110413,0.020000,0.060000,-0.260000,0.040208,0.047975,-0.260157,0.069598,0.262360,-0.259824,0.000000,
223380953,-0.003822,16.839473,1,0.993713,-0.010193,-0.015686,-0.110413,0.030000,0.010000,-0.240000,0.038393,-0.002513,-0.238997,0.029494,0.205274,-0.239227,0.000000,
223393514,0.272454,16.844117,1,0.993713,-0.010193,-0.015686,-0.110413,0.030000,0.030000,-0.250000,0.043077,0.016758,-0.249326,0.173117,0.378243,-0.249215,0.000000,
223401825,0.270394,16.853403,1,0.993713,-0.010193,-0.015686,-0.110413,0.020000,0.020000,-0.240000,0.030839,0.009433,-0.239499,0.232759,0.460372,-0.239606,0.000000,
223410949,0.180703,16.839473,1,0.993713,-0.010193,-0.015686,-0.110413,0.060000,0.010000,-0.240000,0.067647,-0.009086,-0.237994,0.206838,0.419742,-0.238012,0.000000,
223423618,0.180703,16.839473,1,0.993713,-0.010193,-0.015686,-0.110413,0.030000,0.030000,-0.250000,0.043077,0.016758,-0.249326,0.196961,0.397711,-0.249201,0.000000,
223431781,0.455956,16.844117,1,0.993713,-0.010193,-0.015686,-0.110413,0.050000,0.010000,-0.230000,0.057606,-0.006658,-0.228336,0.350638,0.620986,-0.228566,0.000000,
223441035,0.363686,16.848760,1,0.993713,-0.010193,-0.015686,-0.110413,0.020000,0.030000,-0.250000,0.033326,0.018950,-0.249660,0.363922,0.628264,-0.249428,0.000000,
223453596,0.363686,16.848760,1,0.993713,-0.010193,-0.015686,-0.110413,0.030000,0.030000,-0.220000,0.042210,0.017470,-0.219347,0.371659,0.625337,-0.219679,0.000000,
223461786,-0.466163,16.844117,1,0.993713,-0.010193,-0.015686,-0.110413,0.000000,0.000000,-0.230000,0.006653,-0.005456,-0.229839,-0.109851,-0.103370,-0.229727,0.000000,
223471015,0.365228,16.839473,1,0.993713,-0.010193,-0.015686,-0.110413,0.040000,0.020000,-0.240000,0.050342,0.005050,-0.238831,0.163990,0.244065,-0.238731,0.000000,
223483565,-0.281638,16.844117,1,0.993713,-0.010193,-0.015686,-0.110413,0.020000,0.000000,-0.250000,0.026734,-0.010313,-0.249157,-0.091710,-0.083002,-0.249042,0.000000,
223491915,0.272454,16.844117,1,0.993713,-0.010193,-0.015686,-0.110413,0.020000,0.020000,-0.240000,0.030839,0.009433,-0.239499,0.119153,0.231090,-0.239605,0.000000,
223501025,-0.005882,16.848760,1,0.993713,-0.010193,-0.015686,-0.110413,0.010000,0.030000,-0.240000,0.023286,0.021378,-0.240002,0.048912,0.135913,-0.239997,0.000000,
223513620,0.454934,16.853403,1,0.993713,-0.010193,-0.015686,-0.110413,0.030000,0.030000,-0.250000,0.043077,0.016758,-0.249326,0.286347,0.427367,-0.249223,0.000000,
223521807,-0.005882,16.848760,1,0.993713,-0.010193,-0.015686,-0.110413,0.010000,0.030000,-0.240000,0.023286,0.021378,-0.240002,0.120093,0.171117,-0.240103,0.000000,
223531055,0.272454,16.844117,1,0.993713,-0.010193,-0.015686,-0.110413,0.010000,0.030000,-0.240000,0.023286,0.021378,-0.240002,0.209805,0.281345,-0.240003,0.000000,
223543614,0.179162,16.848760,1,0.993713,-0.010193,-0.015686,-0.110413,0.030000,0.050000,-0.260000,0.047762,0.036029,-0.259655,0.195523,0.255721,-0.259438,0.000000,
223551994,0.272454,16.844117,1,0.993713,-0.010193,-0.015686,-0.110413,0.020000,0.030000,-0.230000,0.032748,0.019424,-0.229674,0.242358,0.320816,-0.230002,0.000000,
223561114,-0.190406,16.848760,1,0.993713,-0.010193,-0.015686,-0.110413,-0.010000,0.050000,-0.250000,0.008468,0.045031,-0.250999,-0.005127,-0.004906,-0.250768,0.000000,
223573658,-0.190406,16.848760,1,0.993713,-0.010193,-0.015686,-0.110413,0.040000,0.020000,-0.240000,0.050342,0.005050,-0.238831,-0.112789,-0.142892,-0.238962,0.000000,
223581839,-0.003822,16.839473,1,0.993713,-0.010193,-0.015686,-0.110413,0.030000,0.020000,-0.260000,0.041169,0.006767,-0.259151,-0.050673,-0.050147,-0.258929,0.000000,
223591073,0.272454,16.844117,1,0.993713,-0.010193,-0.015686,-0.110413,0.040000,0.010000,-0.240000,0.048144,-0.004704,-0.238663,0.135778,0.186398,-0.238886,0.000000,
223603633,-0.374412,16.848760,1,0.993713,-0.010193,-0.015686,-0.110413,0.050000,0.050000,-0.240000,0.066686,0.032122,-0.239000,-0.158169,-0.189342,-0.238999,0.000000,
223612016,0.454934,16.853403,1,0.993713,-0.010193,-0.015686,-0.110413,0.020000,0.030000,-0.250000,0.033326,0.018950,-0.249660,0.196492,0.343714,-0.249543,0.000000,
223621138,-0.097114,16.844117,1,0.993713,-0.010193,-0.015686,-0.110413,0.010000,0.020000,-0.240000,0.021088,0.011624,-0.239834,0.029726,0.121589,-0.239941,0.000000,
223633716,0.454934,16.853403,1,0.993713,-0.010193,-0.015686,-0.110413,0.040000,0.030000,-0.230000,0.052250,0.015042,-0.229006,0.278158,0.429249,-0.229126,0.000000,
223641875,-0.097114,16.844117,1,0.993713,-0.010193,-0.015686,-0.110413,0.020000,0.050000,-0.240000,0.037432,0.038695,-0.240003,0.063657,0.099292,-0.239883,0.000000,
223651128,-0.005882,16.848760,1,0.993713,-0.010193,-0.015686,-0.110413,0.020000,0.030000,-0.250000,0.033326,0.018950,-0.249660,0.024336,0.045515,-0.249553,0.000000,
223660703,0.179162,16.848760,1,0.993713,-0.010193,-0.015686,-0.110413,0.020000,0.040000,-0.240000,0.035235,0.028941,-0.239835,0.114338,0.156674,-0.239942,0.000000,
223673525,-0.098655,16.853403,1,0.993713,-0.010193,-0.015686,-0.110413,0.040000,0.030000,-0.260000,0.053118,0.014330,-0.258985,-0.007479,-0.005277,-0.258775,0.000000,
223681902,-0.281638,16.844117,1,0.993713,-0.010193,-0.015686,-0.110413,0.020000,0.030000,-0.240000,0.033037,0.019187,-0.239667,-0.166965,-0.251866,-0.239878,0.000000,
223691136,0.363686,16.848760,1,0.993713,-0.010193,-0.015686,-0.110413,0.030000,0.050000,-0.240000,0.047183,0.036504,-0.239669,0.137904,0.148145,-0.239671,0.000000,
223703732,0.179162,16.848760,1,0.993713,-0.010193,-0.015686,-0.110413,0.030000,0.030000,-0.240000,0.042788,0.016996,-0.239333,0.163720,0.175664,-0.239337,0.000000,
223711924,-0.005882,16.848760,1,0.993713,-0.010193,-0.015686,-0.110413,0.000000,0.020000,-0.240000,0.011337,0.013815,-0.240168,0.066601,0.024426,-0.240159,0.000000,
223721152,0.272454,16.844117,1,0.993713,-0.010193,-0.015686,-0.110413,0.030000,0.030000,-0.250000,0.043077,0.016758,-0.249326,0.185923,0.175460,-0.249225,0.000000,
223733758,-0.190406,16.848760,1,0.993713,-0.010193,-0.015686,-0.110413,0.040000,0.060000,-0.240000,0.059132,0.044067,-0.239503,-0.030465,-0.103970,-0.239610,0.000000,
223742115,-0.005882,16.848760,1,0.993713,-0.010193,-0.015686,-0.110413,0.020000,0.040000,-0.240000,0.035235,0.028941,-0.239835,-0.017055,-0.084376,-0.239833,0.000000,
223751231,-0.283179,16.853403,1,0.993713,-0.010193,-0.015686,-0.110413,0.010000,0.020000,-0.250000,0.021377,0.011387,-0.249827,-0.171834,-0.286707,-0.249717,0.000000,
223763803,-0.190406,16.848760,1,0.993713,-0.010193,-0.015686,-0.110413,0.010000,0.030000,-0.240000,0.023286,0.021378,-0.240002,-0.186243,-0.303331,-0.240109,0.000000,
223771968,-0.097114,16.844117,1,0.993713,-0.010193,-0.015686,-0.110413,0.020000,0.020000,-0.230000,0.030550,0.009670,-0.229506,-0.136948,-0.227068,-0.229623,0.000000,
223781189,0.085870,16.853403,1,0.993713,-0.010193,-0.015686,-0.110413,0.030000,0.020000,-0.230000,0.040301,0.007479,-0.229172,-0.010143,-0.063690,-0.229177,0.000000,
223793749,0.179162,16.848760,1,0.993713,-0.010193,-0.015686,-0.110413,0.020000,0.040000,-0.230000,0.034945,0.029178,-0.229842,0.098980,0.072343,-0.229835,0.000000,
223801947,0.363686,16.848760,1,0.993713,-0.010193,-0.015686,-0.110413,0.020000,0.020000,-0.230000,0.030550,0.009670,-0.229506,0.253354,0.302641,-0.229510,0.000000,
223811200,0.547707,16.848760,1,0.993713,-0.010193,-0.015686,-0.110413,0.010000,0.010000,-0.240000,0.018891,0.001870,-0.239666,0.426458,0.519618,-0.239554,0.000000,
223823754,-0.098655,16.853403,1,0.993713,-0.010193,-0.015686,-0.110413,0.000000,0.030000,-0.240000,0.013534,0.023569,-0.240336,0.127964,0.129915,-0.240327,0.000000,
223832129,-0.468208,16.853403,1,0.993713,-0.010193,-0.015686,-0.110413,0.030000,0.040000,-0.240000,0.044986,0.026750,-0.239501,-0.217427,-0.395702,-0.239510,0.000000,
223841264,0.085870,16.853403,1,0.993713,-0.010193,-0.015686,-0.110413,0.010000,0.040000,-0.240000,0.025483,0.031132,-0.240170,-0.045530,-0.169464,-0.240162,0.000000,
223853827,-0.098655,16.853403,1,0.993713,-0.010193,-0.015686,-0.110413,0.040000,0.030000,-0.240000,0.052540,0.014804,-0.238999,-0.078532,-0.211508,-0.239012,0.000000,
223862019,0.455956,16.844117,1,0.993713,-0.010193,-0.015686,-0.110413,0.000000,0.030000,-0.260000,0.014113,0.023095,-0.260322,0.230262,0.255795,-0.260087,0.000000,
223871250,0.363686,16.848760,1,0.993713,-0.010193,-0.015686,-0.110413,0.010000,0.040000,-0.250000,0.025773,0.030895,-0.250163,0.309811,0.352924,-0.250272,0.000000,
223883802,-0.098655,16.853403,1,0.993713,-0.010193,-0.015686,-0.110413,0.050000,0.020000,-0.230000,0.059804,0.003096,-0.228504,0.076982,0.049384,-0.228743,0.000000,
223891988,0.272454,16.844117,1,0.993713,-0.010193,-0.015686,-0.110413,0.020000,0.020000,-0.240000,0.030839,0.009433,-0.239499,0.190947,0.219177,-0.239381,0.000000,
223901243,-0.191428,16.858047,1,0.993713,-0.010193,-0.015686,-0.110413,0.020000,0.030000,-0.240000,0.033037,0.019187,-0.239667,-0.028282,-0.068062,-0.239664,0.000000,
223913876,0.270394,16.853403,1,0.993713,-0.010193,-0.015686,-0.110413,0.010000,0.020000,-0.230000,0.020799,0.011861,-0.229841,0.144341,0.149295,-0.229949,0.000000,
223922087,0.270394,16.853403,1,0.993713,-0.010193,-0.015686,-0.110413,0.040000,0.020000,-0.250000,0.050631,0.004813,-0.248824,0.218811,0.258564,-0.248616,0.000000,
223931319,0.547707,16.848760,1,0.993713,-0.010193,-0.015686,-0.110413,0.040000,0.030000,-0.240000,0.052540,0.014804,-0.238999,0.411509,0.502528,-0.239105,0.000000,
223943922,-0.098655,16.853403,1,0.993713,-0.010193,-0.015686,-0.110413,0.020000,0.040000,-0.250000,0.035524,0.028704,-0.249828,0.121474,0.122954,-0.249710,0.000000,
223952082,-0.005882,16.848760,1,0.993713,-0.010193,-0.015686,-0.110413,0.040000,0.040000,-0.240000,0.054737,0.024559,-0.239167,0.048469,0.008666,-0.239283,0.000000,
223961318,-0.376456,16.858047,1,0.993713,-0.010193,-0.015686,-0.110413,0.010000,0.040000,-0.260000,0.026062,0.030658,-0.260156,-0.197327,-0.310704,-0.259926,0.000000,
223970896,-0.191428,16.858047,1,0.993713,-0.010193,-0.015686,-0.110413,0.040000,0.040000,-0.270000,0.055605,0.023847,-0.269146,-0.196902,-0.308933,-0.269044,0.000000,
223983701,0.177117,16.858047,1,0.993713,-0.010193,-0.015686,-0.110413,0.030000,0.020000,-0.250000,0.040880,0.007004,-0.249158,0.016553,-0.031835,-0.249377,0.000000,
223992060,0.179162,16.848760,1,0.993713,-0.010193,-0.015686,-0.110413,0.030000,0.030000,-0.240000,0.042788,0.016996,-0.239333,0.110851,0.111984,-0.239444,0.000000,
224001299,0.177117,16.858047,1,0.993713,-0.010193,-0.015686,-0.110413,0.060000,0.010000,-0.240000,0.067647,-0.009086,-0.237994,0.150241,0.160237,-0.238010,0.000000,
224013881,0.085870,16.853403,1,0.993713,-0.010193,-0.015686,-0.110413,0.040000,0.030000,-0.240000,0.052540,0.014804,-0.238999,0.114836,0.109332,-0.238988,0.000000,
224022249,-0.098655,16.853403,1,0.993713,-0.010193,-0.015686,-0.110413,0.030000,0.030000,-0.250000,0.043077,0.016758,-0.249326,-0.008357,-0.081553,-0.249212,0.000000,
224031394,-0.560981,16.858047,1,0.993713,-0.010193,-0.015686,-0.110413,0.040000,0.020000,-0.230000,0.050053,0.005288,-0.228838,-0.328962,-0.501656,-0.229062,0.000000,
224043952,0.085870,16.853403,1,0.993713,-0.010193,-0.015686,-0.110413,0.040000,0.050000,-0.240000,0.056935,0.034313,-0.239335,-0.094326,-0.198613,-0.239221,0.000000,
224052129,0.363686,16.848760,1,0.993713,-0.010193,-0.015686,-0.110413,0.060000,0.050000,-0.250000,0.076726,0.029693,-0.248659,0.170158,0.202712,-0.248555,0.000000,
224061360,-0.006904,16.858047,1,0.993713,-0.010193,-0.015686,-0.110413,0.050000,0.040000,-0.240000,0.064488,0.022367,-0.238832,0.069569,0.068329,-0.238940,0.000000,
224073918,0.270394,16.853403,1,0.993713,-0.010193,-0.015686,-0.110413,0.040000,0.050000,-0.230000,0.056645,0.034550,-0.229342,0.187057,0.213578,-0.229447,0.000000,
224082276,-0.191428,16.858047,1,0.993713,-0.010193,-0.015686,-0.110413,0.040000,0.040000,-0.240000,0.054737,0.024559,-0.239167,-0.031137,-0.121812,-0.239060,0.000000,
224091403,0.270394,16.853403,1,0.993713,-0.010193,-0.015686,-0.110413,0.050000,0.040000,-0.230000,0.064199,0.022605,-0.228839,0.142246,0.103671,-0.228952,0.000000,
224103989,0.177117,16.858047,1,0.993713,-0.010193,-0.015686,-0.110413,0.060000,0.010000,-0.240000,0.067647,-0.009086,-0.237994,0.163786,0.126360,-0.237895,0.000000,
224112169,0.177117,16.858047,1,0.993713,-0.010193,-0.015686,-0.110413,0.040000,0.040000,-0.240000,0.054737,0.024559,-0.239167,0.172558,0.136158,-0.239153,0.000000,
224121396,0.085870,16.853403,1,0.993713,-0.010193,-0.015686,-0.110413,0.000000,0.050000,-0.230000,0.017640,0.043315,-0.230679,0.123644,0.069246,-0.230772,0.000000,
224133925,-0.098655,16.853403,1,0.993713,-0.010193,-0.015686,-0.110413,0.020000,0.020000,-0.240000,0.030839,0.009433,-0.239499,-0.004624,-0.097811,-0.239403,0.000000,
224142277,0.363686,16.848760,1,0.993713,-0.010193,-0.015686,-0.110413,0.020000,0.020000,-0.240000,0.030839,0.009433,-0.239499,0.208596,0.224327,-0.239498,0.000000,
224151403,0.177117,16.858047,1,0.993713,-0.010193,-0.015686,-0.110413,0.010000,0.040000,-0.260000,0.026062,0.030658,-0.260156,0.192415,0.198206,-0.259928,0.000000,
224163989,0.270394,16.853403,1,0.993713,-0.010193,-0.015686,-0.110413,0.010000,0.040000,-0.240000,0.025483,0.031132,-0.240170,0.240183,0.252619,-0.240387,0.000000,
224172163,-0.006904,16.858047,1,0.993713,-0.010193,-0.015686,-0.110413,0.050000,0.040000,-0.240000,0.064488,0.022367,-0.238832,0.098671,0.032713,-0.238850,0.000000,
224181394,-0.191428,16.858047,1,0.993713,-0.010193,-0.015686,-0.110413,0.010000,0.050000,-0.230000,0.027392,0.041123,-0.230344,-0.068896,-0.186236,-0.230438,0.000000,
224194000,0.179162,16.848760,1,0.993713,-0.010193,-0.015686,-0.110413,0.030000,0.030000,-0.230000,0.042499,0.017233,-0.229340,0.072833,-0.005946,-0.229352,0.000000,
224202157,-0.191428,16.858047,1,0.993713,-0.010193,-0.015686,-0.110413,0.030000,0.030000,-0.240000,0.042788,0.016996,-0.239333,-0.080780,-0.241488,-0.239223,0.000000,
224211384,-0.285224,16.862690,1,0.993713,-0.010193,-0.015686,-0.110413,0.050000,0.030000,-0.240000,0.062291,0.012613,-0.238665,-0.201315,-0.396517,-0.238671,0.000000,
224231653,0.270394,16.853403,1,0.993713,-0.010193,-0.015686,-0.110413,0.050000,0.040000,-0.240000,0.064488,0.022367,-0.238832,0.067280,-0.053030,-0.238831,0.000000,
224241141,-0.466163,16.844117,1,0.993713,-0.010193,-0.015686,-0.110413,0.020000,0.040000,-0.230000,0.034945,0.029178,-0.229842,-0.249110,-0.700984,-0.229941,0.000000,
224250962,0.642541,16.834830,1,0.993713,-0.010193,-0.015686,-0.110413,0.020000,0.020000,-0.260000,0.031418,0.008958,-0.259485,0.264822,0.129187,-0.259160,0.000000,
224263771,0.734292,16.839473,1,0.993713,-0.010193,-0.015686,-0.110413,0.010000,0.040000,-0.220000,0.024905,0.031607,-0.220184,0.540553,0.517001,-0.220613,0.000000,
224272158,0.365228,16.839473,1,0.993713,-0.010193,-0.015686,-0.110413,0.010000,0.050000,-0.250000,0.027970,0.040649,-0.250330,0.442779,0.354212,-0.250003,0.000000,
224281380,-0.098655,16.853403,1,0.993713,-0.010193,-0.015686,-0.110413,0.050000,0.030000,-0.240000,0.062291,0.012613,-0.238665,0.132489,-0.060033,-0.238789,0.000000,
224290964,-0.005882,16.848760,1,0.993713,-0.010193,-0.015686,-0.110413,0.060000,0.030000,-0.230000,0.071753,0.010659,-0.228337,0.051833,-0.163572,-0.228452,0.000000,
224303759,0.087930,16.844117,1,0.993713,-0.010193,-0.015686,-0.110413,0.010000,0.020000,-0.230000,0.020799,0.011861,-0.229841,0.070698,-0.139909,-0.229825,0.000000,
224312079,-0.376456,16.858047,1,0.993713,-0.010193,-0.015686,-0.110413,0.020000,0.030000,-0.240000,0.033037,0.019187,-0.239667,-0.190381,-0.534199,-0.239559,0.000000,
224321308,0.179162,16.848760,1,0.993713,-0.010193,-0.015686,-0.110413,0.020000,0.020000,-0.240000,0.030839,0.009433,-0.239499,0.018514,-0.261968,-0.239500,0.000000,
224334005,0.270394,16.853403,1,0.993713,-0.010193,-0.015686,-0.110413,0.040000,0.030000,-0.240000,0.052540,0.014804,-0.238999,0.161450,-0.082071,-0.239004,0.000000,
224342184,0.455956,16.844117,1,0.993713,-0.010193,-0.015686,-0.110413,0.030000,0.030000,-0.250000,0.043077,0.016758,-0.249326,0.331852,0.171913,-0.249212,0.000000,
224351418,-0.652213,16.853403,1,0.993713,-0.010193,-0.015686,-0.110413,0.050000,0.030000,-0.230000,0.062002,0.012851,-0.228672,-0.235783,-0.552267,-0.228898,0.000000,
224363970,0.087930,16.844117,1,0.993713,-0.010193,-0.015686,-0.110413,0.030000,0.020000,-0.240000,0.040591,0.007242,-0.239165,-0.054796,-0.321075,-0.239052,0.000000,
224372328,0.085870,16.853403,1,0.993713,-0.010193,-0.015686,-0.110413,0.020000,0.020000,-0.240000,0.030839,0.009433,-0.239499,0.024223,-0.201683,-0.239494,0.000000,
224381454,-0.005882,16.848760,1,0.993713,-0.010193,-0.015686,-0.110413,0.040000,0.040000,-0.240000,0.054737,0.024559,-0.239167,0.004958,-0.226130,-0.239170,0.000000,
224394034,0.179162,16.848760,1,0.993713,-0.010193,-0.015686,-0.110413,0.030000,0.030000,-0.240000,0.042788,0.016996,-0.239333,0.103227,-0.103370,-0.239331,0.000000,
224402195,0.085870,16.853403,1,0.993713,-0.010193,-0.015686,-0.110413,0.020000,0.030000,-0.250000,0.033326,0.018950,-0.249660,0.092295,-0.120415,-0.249547,0.000000,
224411428,0.085870,16.853403,1,0.993713,-0.010193,-0.015686,-0.110413,0.020000,0.040000,-0.260000,0.035813,0.028466,-0.259821,0.087456,-0.127520,-0.259708,0.000000,
224424036,0.085870,16.853403,1,0.993713,-0.010193,-0.015686,-0.110413,0.030000,0.050000,-0.220000,0.046605,0.036978,-0.219683,0.084910,-0.131440,-0.220124,0.000000,
224432198,-0.374412,16.848760,1,0.993713,-0.010193,-0.015686,-0.110413,0.050000,0.030000,-0.250000,0.062580,0.012376,-0.248658,-0.182952,-0.532141,-0.248343,0.000000,
224441433,0.179162,16.848760,1,0.993713,-0.010193,-0.015686,-0.110413,0.020000,0.030000,-0.240000,0.033037,0.019187,-0.239667,0.021577,-0.268367,-0.239763,0.000000,
224453995,0.179162,16.848760,1,0.993713,-0.010193,-0.015686,-0.110413,0.010000,0.040000,-0.230000,0.025194,0.031369,-0.230177,0.109684,-0.156825,-0.230282,0.000000,
224462187,0.363686,16.848760,1,0.993713,-0.010193,-0.015686,-0.110413,0.050000,0.020000,-0.250000,0.060382,0.002622,-0.248490,0.255921,0.061523,-0.248289,0.000000,
224471417,0.085870,16.853403,1,0.993713,-0.010193,-0.015686,-0.110413,0.040000,0.030000,-0.240000,0.052540,0.014804,-0.238999,0.158113,-0.065901,-0.239101,0.000000,
224483969,0.268868,16.862690,1,0.993713,-0.010193,-0.015686,-0.110413,0.030000,0.030000,-0.240000,0.042788,0.016996,-0.239333,0.221576,0.011660,-0.239331,0.000000,
224492345,0.363686,16.848760,1,0.993713,-0.010193,-0.015686,-0.110413,-0.010000,0.060000,-0.240000,0.010376,0.055023,-0.241174,0.304230,0.133082,-0.241154,0.000000,
224501455,0.177117,16.858047,1,0.993713,-0.010193,-0.015686,-0.110413,0.030000,0.040000,-0.240000,0.044986,0.026750,-0.239501,0.231890,0.036156,-0.239519,0.000000,
224514005,0.452889,16.862690,1,0.993713,-0.010193,-0.015686,-0.110413,0.010000,0.040000,-0.240000,0.025483,0.031132,-0.240170,0.360638,0.193692,-0.240162,0.000000,
224522187,0.545663,16.858047,1,0.993713,-0.010193,-0.015686,-0.110413,0.050000,0.020000,-0.240000,0.060093,0.002859,-0.238497,0.469681,0.352509,-0.238515,0.000000,
224531418,0.361123,16.858047,1,0.993713,-0.010193,-0.015686,-0.110413,0.020000,0.030000,-0.250000,0.033326,0.018950,-0.249660,0.410128,0.270142,-0.249538,0.000000,
224544015,0.177117,16.858047,1,0.993713,-0.010193,-0.015686,-0.110413,0.020000,0.020000,-0.250000,0.031129,0.009195,-0.249492,0.278201,0.097105,-0.249493,0.000000,
224552175,0.916787,16.848760,1,0.993713,-0.010193,-0.015686,-0.110413,0.030000,0.040000,-0.230000,0.044697,0.026987,-0.229508,0.649935,0.652621,-0.229728,0.000000,
224561409,-0.283179,16.853403,1,0.993713,-0.010193,-0.015686,-0.110413,0.050000,0.020000,-0.250000,0.060382,0.002622,-0.248490,0.116159,-0.038955,-0.248283,0.000000,
224574013,0.177117,16.858047,1,0.993713,-0.010193,-0.015686,-0.110413,0.040000,0.050000,-0.240000,0.056935,0.034313,-0.239335,0.151049,0.002545,-0.239433,0.000000,
224582299,0.179162,16.848760,1,0.993713,-0.010193,-0.015686,-0.110413,0.020000,0.040000,-0.240000,0.035235,0.028941,-0.239835,0.167396,0.025137,-0.239831,0.000000,
224591414,-0.191428,16.858047,1,0.993713,-0.010193,-0.015686,-0.110413,0.030000,0.030000,-0.240000,0.042788,0.016996,-0.239333,-0.039981,-0.244458,-0.239339,0.000000,
224601001,0.179162,16.848760,1,0.993713,-0.010193,-0.015686,-0.110413,0.020000,0.030000,-0.240000,0.033037,0.019187,-0.239667,0.084433,-0.087171,-0.239664,0.000000,
224613792,0.272454,16.844117,1,0.993713,-0.010193,-0.015686,-0.110413,0.030000,0.050000,-0.240000,0.047183,0.036504,-0.239669,0.192574,0.049417,-0.239669,0.000000,
224622178,0.547707,16.848760,1,0.993713,-0.010193,-0.015686,-0.110413,0.010000,0.040000,-0.250000,0.025773,0.030895,-0.250163,0.399481,0.363084,-0.250047,0.000000,
224631410,0.085870,16.853403,1,0.993713,-0.010193,-0.015686,-0.110413,0.010000,0.020000,-0.250000,0.021377,0.011387,-0.249827,0.221275,0.123483,-0.249829,0.000000,
224644086,0.177117,16.858047,1,0.993713,-0.010193,-0.015686,-0.110413,0.020000,0.040000,-0.240000,0.035235,0.028941,-0.239835,0.197165,0.087814,-0.239945,0.000000,
224652277,-0.100700,16.862690,1,0.993713,-0.010193,-0.015686,-0.110413,0.020000,0.030000,-0.230000,0.032748,0.019424,-0.229674,0.024778,-0.176911,-0.229788,0.000000,
224661420,-0.098655,16.853403,1,0.993713,-0.010193,-0.015686,-0.110413,-0.010000,0.020000,-0.240000,0.001586,0.016006,-0.240502,-0.048263,-0.271106,-0.240384,0.000000,
224673989,0.177117,16.858047,1,0.993713,-0.010193,-0.015686,-0.110413,0.020000,0.040000,-0.220000,0.034656,0.029415,-0.219849,0.079189,-0.109252,-0.220076,0.000000,
224682346,-0.098655,16.853403,1,0.993713,-0.010193,-0.015686,-0.110413,0.020000,0.030000,-0.250000,0.033326,0.018950,-0.249660,-0.025074,-0.266894,-0.249334,0.000000,
224691489,0.361123,16.858047,1,0.993713,-0.010193,-0.015686,-0.110413,0.020000,0.040000,-0.250000,0.035524,0.028704,-0.249828,0.195950,0.020353,-0.249823,0.000000,
224704122,-0.100700,16.862690,1,0.993713,-0.010193,-0.015686,-0.110413,0.020000,0.030000,-0.240000,0.033037,0.019187,-0.239667,0.023896,-0.199992,-0.239779,0.000000,
224712313,0.085870,16.853403,1,0.993713,-0.010193,-0.015686,-0.110413,0.020000,0.020000,-0.250000,0.031129,0.009195,-0.249492,0.058258,-0.147576,-0.249385,0.000000,
224721428,0.177117,16.858047,1,0.993713,-0.010193,-0.015686,-0.110413,0.020000,0.030000,-0.240000,0.033037,0.019187,-0.239667,0.125663,-0.061289,-0.239774,0.000000,
224734067,0.270394,16.853403,1,0.993713,-0.010193,-0.015686,-0.110413,0.030000,0.020000,-0.250000,0.040880,0.007004,-0.249158,0.208915,0.041131,-0.249055,0.000000,
224742245,-0.100700,16.862690,1,0.993713,-0.010193,-0.015686,-0.110413,0.030000,0.020000,-0.250000,0.040880,0.007004,-0.249158,0.029358,-0.232808,-0.249157,0.000000,
224751479,0.363686,16.848760,1,0.993713,-0.010193,-0.015686,-0.110413,0.040000,0.010000,-0.230000,0.047855,-0.004467,-0.228670,0.220633,0.013777,-0.228896,0.000000,
224764060,0.454934,16.853403,1,0.993713,-0.010193,-0.015686,-0.110413,0.030000,0.010000,-0.230000,0.038104,-0.002275,-0.229004,0.356871,0.183065,-0.229003,0.000000,
224772233,0.270394,16.853403,1,0.993713,-0.010193,-0.015686,-0.110413,0.050000,0.030000,-0.260000,0.062869,0.012139,-0.258651,0.308117,0.104996,-0.258324,0.000000,
224781463,0.454934,16.853403,1,0.993713,-0.010193,-0.015686,-0.110413,0.020000,0.020000,-0.240000,0.030839,0.009433,-0.239499,0.394020,0.212012,-0.239707,0.000000,
224794020,-0.376456,16.858047,1,0.993713,-0.010193,-0.015686,-0.110413,0.020000,0.030000,-0.240000,0.033037,0.019187,-0.239667,-0.050821,-0.357280,-0.239668,0.000000,
224802395,0.270394,16.853403,1,0.993713,-0.010193,-0.015686,-0.110413,0.040000,0.020000,-0.250000,0.050631,0.004813,-0.248824,0.132851,-0.077424,-0.248723,0.000000,
224811519,-0.191428,16.858047,1,0.993713,-0.010193,-0.015686,-0.110413,0.040000,0.040000,-0.230000,0.054448,0.024796,-0.229174,-0.055525,-0.323653,-0.229389,0.000000,
224824088,-0.285224,16.862690,1,0.993713,-0.010193,-0.015686,-0.110413,0.000000,0.030000,-0.240000,0.013534,0.023569,-0.240336,-0.193016,-0.495321,-0.240215,0.000000,
224832268,-0.377998,16.867333,1,0.993713,-0.010193,-0.015686,-0.110413,0.030000,0.030000,-0.230000,0.042499,0.017233,-0.229340,-0.304547,-0.659646,-0.229460,0.000000,
224841500,-0.191428,16.858047,1,0.993713,-0.010193,-0.015686,-0.110413,0.040000,0.030000,-0.240000,0.052540,0.014804,-0.238999,-0.245198,-0.577618,-0.238894,0.000000,
224854061,-0.006904,16.858047,1,0.993713,-0.010193,-0.015686,-0.110413,0.030000,0.020000,-0.240000,0.040591,0.007242,-0.239165,-0.114069,-0.405277,-0.239162,0.000000,
224862437,-0.008949,16.867333,1,0.993713,-0.010193,-0.015686,-0.110413,0.020000,0.020000,-0.230000,0.030550,0.009670,-0.229506,-0.056379,-0.314810,-0.229613,0.000000,
224871561,0.268868,16.862690,1,0.993713,-0.010193,-0.015686,-0.110413,0.010000,0.030000,-0.240000,0.023286,0.021378,-0.240002,0.128964,-0.071831,-0.239887,0.000000,
224884112,-0.285224,16.862690,1,0.993713,-0.010193,-0.015686,-0.110413,0.030000,0.040000,-0.250000,0.045275,0.026513,-0.249494,-0.112509,-0.379402,-0.249388,0.000000,
224892275,0.452889,16.862690,1,0.993713,-0.010193,-0.015686,-0.110413,0.000000,0.020000,-0.250000,0.011626,0.013578,-0.250161,0.212862,0.115154,-0.250152,0.000000,
224901498,0.268868,16.862690,1,0.993713,-0.010193,-0.015686,-0.110413,0.040000,0.000000,-0.240000,0.045947,-0.014458,-0.238495,0.246317,0.154642,-0.238623,0.000000,
224914097,0.084328,16.862690,1,0.993713,-0.010193,-0.015686,-0.110413,0.020000,0.020000,-0.250000,0.031129,0.009195,-0.249492,0.154158,0.032320,-0.249373,0.000000,
224922269,0.270394,16.853403,1,0.993713,-0.010193,-0.015686,-0.110413,0.030000,0.050000,-0.240000,0.047183,0.036504,-0.239669,0.221952,0.132774,-0.239776,0.000000,
224931501,-0.193473,16.867333,1,0.993713,-0.010193,-0.015686,-0.110413,0.050000,0.060000,-0.240000,0.068883,0.041876,-0.239168,-0.017201,-0.179378,-0.239175,0.000000,
224941133,0.084328,16.862690,1,0.993713,-0.010193,-0.015686,-0.110413,0.030000,0.050000,-0.250000,0.047473,0.036267,-0.249662,0.039812,-0.106949,-0.249546,0.000000,
224953966,-0.100700,16.862690,1,0.993713,-0.010193,-0.015686,-0.110413,0.040000,0.030000,-0.250000,0.052829,0.014567,-0.248992,-0.043278,-0.215782,-0.248998,0.000000,
224962353,0.361123,16.858047,1,0.993713,-0.010193,-0.015686,-0.110413,0.040000,0.030000,-0.230000,0.052250,0.015042,-0.229006,0.190134,0.145843,-0.229226,0.000000,
224971587,0.177117,16.858047,1,0.993713,-0.010193,-0.015686,-0.110413,0.050000,0.030000,-0.230000,0.062002,0.012851,-0.228672,0.183934,0.133793,-0.228678,0.000000,
224984193,0.361123,16.858047,1,0.993713,-0.010193,-0.015686,-0.110413,0.020000,0.020000,-0.240000,0.030839,0.009433,-0.239499,0.288561,0.262727,-0.239380,0.000000,
224992381,0.270394,16.853403,1,0.993713,-0.010193,-0.015686,-0.110413,0.040000,0.030000,-0.230000,0.052250,0.015042,-0.229006,0.280147,0.244765,-0.229120,0.000000,
225001600,-0.100700,16.862690,1,0.993713,-0.010193,-0.015686,-0.110413,0.030000,0.030000,-0.260000,0.043367,0.016521,-0.259319,0.062011,-0.042848,-0.258986,0.000000,
225014155,0.177117,16.858047,1,0.993713,-0.010193,-0.015686,-0.110413,0.020000,0.040000,-0.260000,0.035813,0.028466,-0.259821,0.128312,0.038829,-0.259812,0.000000,
225022346,0.177117,16.858047,1,0.993713,-0.010193,-0.015686,-0.110413,0.030000,0.030000,-0.240000,0.042788,0.016996,-0.239333,0.156980,0.079849,-0.239559,0.000000,
225031577,-0.098655,16.853403,1,0.993713,-0.010193,-0.015686,-0.110413,0.000000,0.050000,-0.240000,0.017930,0.043077,-0.240672,0.009790,-0.113364,-0.240659,0.000000,
225044156,-0.006904,16.858047,1,0.993713,-0.010193,-0.015686,-0.110413,0.050000,0.030000,-0.240000,0.062291,0.012613,-0.238665,-0.001352,-0.128684,-0.238687,0.000000,
225052341,-0.006904,16.858047,1,0.993713,-0.010193,-0.015686,-0.110413,0.020000,0.030000,-0.240000,0.033037,0.019187,-0.239667,-0.005639,-0.135542,-0.239657,0.000000,
225061574,0.268868,16.862690,1,0.993713,-0.010193,-0.015686,-0.110413,0.030000,0.050000,-0.240000,0.047183,0.036504,-0.239669,0.151939,0.067446,-0.239669,0.000000,
225074125,-0.469749,16.862690,1,0.993713,-0.010193,-0.015686,-0.110413,0.010000,0.040000,-0.240000,0.025483,0.031132,-0.240170,-0.208342,-0.394546,-0.240164,0.000000,
225082494,0.085870,16.853403,1,0.993713,-0.010193,-0.015686,-0.110413,0.020000,0.020000,-0.230000,0.030550,0.009670,-0.229506,-0.040657,-0.137257,-0.229624,0.000000,
225091619,-0.006904,16.858047,1,0.993713,-0.010193,-0.015686,-0.110413,0.000000,0.030000,-0.230000,0.013245,0.023806,-0.230343,-0.022385,-0.113862,-0.230335,0.000000,
225104197,-0.008949,16.867333,1,0.993713,-0.010193,-0.015686,-0.110413,0.030000,0.030000,-0.240000,0.042788,0.016996,-0.239333,-0.016032,-0.106971,-0.239234,0.000000,
225112357,-0.100700,16.862690,1,0.993713,-0.010193,-0.015686,-0.110413,0.040000,0.030000,-0.240000,0.052540,0.014804,-0.238999,-0.066107,-0.183573,-0.239001,0.000000,
225121588,0.452889,16.862690,1,0.993713,-0.010193,-0.015686,-0.110413,0.020000,0.030000,-0.260000,0.033615,0.018712,-0.259653,0.232482,0.201477,-0.259426,0.000000,
225134142,-0.191428,16.858047,1,0.993713,-0.010193,-0.015686,-0.110413,0.000000,0.030000,-0.240000,0.013534,0.023569,-0.240336,-0.011233,-0.114386,-0.240546,0.000000,
225142517,0.268868,16.862690,1,0.993713,-0.010193,-0.015686,-0.110413,0.040000,0.030000,-0.240000,0.052540,0.014804,-0.238999,0.150597,0.130480,-0.239016,0.000000,
225151643,0.452889,16.862690,1,0.993713,-0.010193,-0.015686,-0.110413,0.020000,0.020000,-0.240000,0.030839,0.009433,-0.239499,0.326730,0.356831,-0.239494,0.000000,
225164220,0.545663,16.858047,1,0.993713,-0.010193,-0.015686,-0.110413,0.020000,0.030000,-0.220000,0.032459,0.019661,-0.219681,0.458366,0.515498,-0.219900,0.000000,
225172412,0.268868,16.862690,1,0.993713,-0.010193,-0.015686,-0.110413,0.020000,0.010000,-0.250000,0.028931,-0.000559,-0.249324,0.352470,0.346289,-0.249000,0.000000,
225181645,0.084328,16.862690,1,0.993713,-0.010193,-0.015686,-0.110413,0.020000,0.040000,-0.250000,0.035524,0.028704,-0.249828,0.200497,0.143331,-0.249819,0.000000,
225194216,-0.006904,16.858047,1,0.993713,-0.010193,-0.015686,-0.110413,0.050000,0.020000,-0.260000,0.060672,0.002385,-0.258483,0.081803,-0.013188,-0.258387,0.000000,
225202397,-0.100700,16.862690,1,0.993713,-0.010193,-0.015686,-0.110413,0.040000,0.040000,-0.240000,0.054737,0.024559,-0.239167,-0.024359,-0.176242,-0.239379,0.000000,
225211639,-0.100700,16.862690,1,0.993713,-0.010193,-0.015686,-0.110413,0.020000,0.020000,-0.240000,0.030839,0.009433,-0.239499,-0.070173,-0.235570,-0.239498,0.000000,
225231938,-0.100700,16.862690,1,0.993713,-0.010193,-0.015686,-0.110413,0.030000,0.020000,-0.240000,0.040591,0.007242,-0.239165,-0.092911,-0.262998,-0.239169,0.000000,
225241398,0.085870,16.853403,1,0.993713,-0.010193,-0.015686,-0.110413,0.020000,0.040000,-0.230000,0.034945,0.029178,-0.229842,0.010460,-0.048426,-0.229945,0.000000,
225251199,-0.005882,16.848760,1,0.993713,-0.010193,-0.015686,-0.110413,0.020000,0.040000,-0.240000,0.035235,0.028941,-0.239835,0.000429,-0.066030,-0.239726,0.000000,
225261135,-0.376456,16.858047,1,0.993713,-0.010193,-0.015686,-0.110413,0.050000,0.040000,-0.240000,0.064488,0.022367,-0.238832,-0.219368,-0.381622,-0.238842,0.000000,
225275441,-0.191428,16.858047,1,0.993713,-0.010193,-0.015686,-0.110413,0.020000,0.020000,-0.230000,0.030550,0.009670,-0.229506,-0.208536,-0.362726,-0.229609,0.000000,
225283021,-0.744971,16.858047,1,0.993713,-0.010193,-0.015686,-0.110413,0.020000,0.020000,-0.230000,0.030550,0.009670,-0.229506,-0.523964,-0.881628,-0.229508,0.000000,
225291916,-0.285224,16.862690,1,0.993713,-0.010193,-0.015686,-0.110413,0.030000,0.040000,-0.220000,0.044407,0.027224,-0.219515,-0.393704,-0.705570,-0.219625,0.000000,
225304351,0.177117,16.858047,1,0.993713,-0.010193,-0.015686,-0.110413,0.040000,0.040000,-0.250000,0.055026,0.024321,-0.249160,-0.071309,-0.302590,-0.248834,0.000000,
225312532,-0.376456,16.858047,1,0.993713,-0.010193,-0.015686,-0.110413,0.040000,0.040000,-0.240000,0.054737,0.024559,-0.239167,-0.250914,-0.563909,-0.239273,0.000000,
225321706,0.270394,16.853403,1,0.993713,-0.010193,-0.015686,-0.110413,0.040000,0.040000,-0.240000,0.054737,0.024559,-0.239167,0.045315,-0.188341,-0.239168,0.000000,
225334266,0.270394,16.853403,1,0.993713,-0.010193,-0.015686,-0.110413,0.050000,0.030000,-0.240000,0.062291,0.012613,-0.238665,0.173564,-0.030196,-0.238670,0.000000,
225342464,-0.005882,16.848760,1,0.993713,-0.010193,-0.015686,-0.110413,0.020000,0.020000,-0.240000,0.030839,0.009433,-0.239499,0.069111,-0.186278,-0.239490,0.000000,
225351674,-0.100700,16.862690,1,0.993713,-0.010193,-0.015686,-0.110413,0.030000,0.030000,-0.230000,0.042499,0.017233,-0.229340,-0.030820,-0.312370,-0.229452,0.000000,
225364243,-0.006904,16.858047,1,0.993713,-0.010193,-0.015686,-0.110413,0.060000,0.040000,-0.240000,0.074240,0.020176,-0.238498,-0.020881,-0.298127,-0.238399,0.000000,
225372601,0.177117,16.858047,1,0.993713,-0.010193,-0.015686,-0.110413,0.010000,0.040000,-0.240000,0.025483,0.031132,-0.240170,0.091631,-0.129343,-0.240150,0.000000,
225381745,-0.376456,16.858047,1,0.993713,-0.010193,-0.015686,-0.110413,0.030000,0.020000,-0.240000,0.040591,0.007242,-0.239165,-0.180344,-0.477634,-0.239176,0.000000,
225394318,-0.008949,16.867333,1,0.993713,-0.010193,-0.015686,-0.110413,0.020000,0.020000,-0.250000,0.031129,0.009195,-0.249492,-0.086865,-0.356910,-0.249379,0.000000,
225402478,0.268868,16.862690,1,0.993713,-0.010193,-0.015686,-0.110413,0.010000,0.020000,-0.230000,0.020799,0.011861,-0.229841,0.116805,-0.051229,-0.230056,0.000000,
225411711,0.084328,16.862690,1,0.993713,-0.010193,-0.015686,-0.110413,0.020000,0.050000,-0.250000,0.037721,0.038458,-0.249996,0.097538,-0.077320,-0.249776,0.000000,
225424263,0.361123,16.858047,1,0.993713,-0.010193,-0.015686,-0.110413,0.010000,0.040000,-0.240000,0.025483,0.031132,-0.240170,0.249579,0.110608,-0.240275,0.000000,
225432639,-0.191428,16.858047,1,0.993713,-0.010193,-0.015686,-0.110413,0.050000,0.040000,-0.230000,0.064199,0.022605,-0.228839,-0.005700,-0.272998,-0.228966,0.000000,
225441738,-0.100700,16.862690,1,0.993713,-0.010193,-0.015686,-0.110413,0.010000,0.040000,-0.250000,0.025773,0.030895,-0.250163,-0.063153,-0.345840,-0.249929,0.000000,
225454294,-0.100700,16.862690,1,0.993713,-0.010193,-0.015686,-0.110413,0.020000,0.040000,-0.240000,0.035235,0.028941,-0.239835,-0.089312,-0.376021,-0.239946,0.000000,
225462661,-0.100700,16.862690,1,0.993713,-0.010193,-0.015686,-0.110413,0.060000,0.030000,-0.240000,0.072042,0.010422,-0.238330,-0.099082,-0.387879,-0.238348,0.000000,
225471787,0.915246,16.858047,1,0.993713,-0.010193,-0.015686,-0.110413,0.000000,0.050000,-0.250000,0.018219,0.042840,-0.250665,0.484194,0.363808,-0.250529,0.000000,
225484418,-0.100700,16.862690,1,0.993713,-0.010193,-0.015686,-0.110413,0.030000,0.040000,-0.250000,0.045275,0.026513,-0.249494,0.149151,-0.063776,-0.249505,0.000000,
225492616,-0.100700,16.862690,1,0.993713,-0.010193,-0.015686,-0.110413,0.020000,0.020000,-0.220000,0.030261,0.009907,-0.219513,0.003482,-0.283232,-0.219844,0.000000,
225501737,0.268868,16.862690,1,0.993713,-0.010193,-0.015686,-0.110413,0.030000,0.040000,-0.240000,0.044986,0.026750,-0.239501,0.154391,-0.089422,-0.239284,0.000000,
225514405,0.177117,16.858047,1,0.993713,-0.010193,-0.015686,-0.110413,0.020000,0.030000,-0.250000,0.033326,0.018950,-0.249660,0.166434,-0.076130,-0.249546,0.000000,
225522587,0.454934,16.853403,1,0.993713,-0.010193,-0.015686,-0.110413,0.040000,0.030000,-0.250000,0.052829,0.014567,-0.248992,0.333399,0.173675,-0.248998,0.000000,
225531789,-0.377998,16.867333,1,0.993713,-0.010193,-0.015686,-0.110413,0.030000,0.030000,-0.230000,0.042499,0.017233,-0.229340,-0.076540,-0.354236,-0.229557,0.000000,
225544369,0.360101,16.867333,1,0.993713,-0.010193,-0.015686,-0.110413,0.010000,0.020000,-0.260000,0.021667,0.011149,-0.259820,0.172528,-0.039450,-0.259486,0.000000,
225552560,0.452889,16.862690,1,0.993713,-0.010193,-0.015686,-0.110413,0.010000,0.050000,-0.230000,0.027392,0.041123,-0.230344,0.335056,0.203049,-0.230666,0.000000,
225561812,0.177117,16.858047,1,0.993713,-0.010193,-0.015686,-0.110413,0.010000,0.020000,-0.220000,0.020510,0.012098,-0.219848,0.245555,0.084223,-0.219967,0.000000,
225574364,0.084328,16.862690,1,0.993713,-0.010193,-0.015686,-0.110413,0.000000,0.040000,-0.230000,0.015443,0.033560,-0.230511,0.152966,-0.036575,-0.230395,0.000000,
225582713,0.361123,16.858047,1,0.993713,-0.010193,-0.015686,-0.110413,0.030000,0.050000,-0.250000,0.047473,0.036267,-0.249662,0.273599,0.142925,-0.249450,0.000000,
225591829,-0.008949,16.867333,1,0.993713,-0.010193,-0.015686,-0.110413,0.000000,0.040000,-0.240000,0.015732,0.033323,-0.240504,0.111413,-0.070358,-0.240602,0.000000,
225604388,0.175576,16.867333,1,0.993713,-0.010193,-0.015686,-0.110413,0.020000,0.020000,-0.230000,0.030550,0.009670,-0.229506,0.147768,-0.026470,-0.229629,0.000000,
225612579,0.270394,16.853403,1,0.993713,-0.010193,-0.015686,-0.110413,0.020000,0.020000,-0.250000,0.031129,0.009195,-0.249492,0.218775,0.078448,-0.249273,0.000000,
225621809,0.082284,16.871976,1,0.993713,-0.010193,-0.015686,-0.110413,0.020000,0.030000,-0.220000,0.032459,0.019661,-0.219681,0.140528,-0.024659,-0.220007,0.000000,
225631382,-0.100700,16.862690,1,0.993713,-0.010193,-0.015686,-0.110413,0.020000,0.010000,-0.260000,0.029220,-0.000796,-0.259317,0.000720,-0.203649,-0.258884,0.000000,
225644195,0.082284,16.871976,1,0.993713,-0.010193,-0.015686,-0.110413,0.020000,0.040000,-0.240000,0.035235,0.028941,-0.239835,0.045498,-0.146041,-0.240045,0.000000,
225652551,0.361123,16.858047,1,0.993713,-0.010193,-0.015686,-0.110413,0.010000,0.030000,-0.240000,0.023286,0.021378,-0.240002,0.227803,0.133201,-0.240002,0.000000,
225661773,0.268868,16.862690,1,0.993713,-0.010193,-0.015686,-0.110413,0.020000,0.020000,-0.230000,0.030550,0.009670,-0.229506,0.252794,0.162148,-0.229622,0.000000,
225674461,0.084328,16.862690,1,0.993713,-0.010193,-0.015686,-0.110413,0.020000,0.040000,-0.230000,0.034945,0.029178,-0.229842,0.156954,0.034788,-0.229840,0.000000,
225682624,0.452889,16.862690,1,0.993713,-0.010193,-0.015686,-0.110413,0.010000,0.050000,-0.250000,0.027970,0.040649,-0.250330,0.329205,0.294145,-0.250105,0.000000,
225691877,-0.008949,16.867333,1,0.993713,-0.010193,-0.015686,-0.110413,0.040000,0.040000,-0.240000,0.054737,0.024559,-0.239167,0.136254,0.040097,-0.239287,0.000000,
225704457,0.084328,16.862690,1,0.993713,-0.010193,-0.015686,-0.110413,0.060000,0.020000,-0.240000,0.069844,0.000668,-0.238162,0.106580,-0.001080,-0.238175,0.000000,
225712648,0.177117,16.858047,1,0.993713,-0.010193,-0.015686,-0.110413,0.030000,0.040000,-0.250000,0.045275,0.026513,-0.249494,0.147545,0.058772,-0.249369,0.000000,
225721879,-0.193473,16.867333,1,0.993713,-0.010193,-0.015686,-0.110413,0.030000,0.030000,-0.230000,0.042499,0.017233,-0.229340,-0.049227,-0.196993,-0.229561,0.000000,
225734428,-0.008949,16.867333,1,0.993713,-0.010193,-0.015686,-0.110413,0.030000,0.020000,-0.230000,0.040301,0.007479,-0.229172,-0.028325,-0.170294,-0.229176,0.000000,
225742778,0.361123,16.858047,1,0.993713,-0.010193,-0.015686,-0.110413,0.020000,0.020000,-0.240000,0.030839,0.009433,-0.239499,0.196552,0.168924,-0.239386,0.000000,
225751901,0.268868,16.862690,1,0.993713,-0.010193,-0.015686,-0.110413,0.010000,0.030000,-0.260000,0.023864,0.020904,-0.259988,0.239928,0.220827,-0.259761,0.000000,
225764487,0.451348,16.871976,1,0.993713,-0.010193,-0.015686,-0.110413,0.020000,0.040000,-0.240000,0.035235,0.028941,-0.239835,0.365471,0.372685,-0.240055,0.000000,
225772670,-0.193473,16.867333,1,0.993713,-0.010193,-0.015686,-0.110413,0.030000,0.010000,-0.230000,0.038104,-0.002275,-0.229004,0.043779,-0.119625,-0.229126,0.000000,
225781896,0.175576,16.867333,1,0.993713,-0.010193,-0.015686,-0.110413,0.040000,0.030000,-0.240000,0.052540,0.014804,-0.238999,0.118919,-0.023780,-0.238890,0.000000,
225794458,0.268868,16.862690,1,0.993713,-0.010193,-0.015686,-0.110413,0.020000,0.050000,-0.240000,0.037432,0.038695,-0.240003,0.205690,0.083372,-0.239991,0.000000,
225802630,0.268868,16.862690,1,0.993713,-0.010193,-0.015686,-0.110413,0.010000,0.040000,-0.240000,0.025483,0.031132,-0.240170,0.243068,0.136860,-0.240168,0.000000,
225811839,0.452889,16.862690,1,0.993713,-0.010193,-0.015686,-0.110413,0.030000,0.050000,-0.250000,0.047473,0.036267,-0.249662,0.365710,0.290635,-0.249557,0.000000,
225824412,-0.100700,16.862690,1,0.993713,-0.010193,-0.015686,-0.110413,0.040000,0.040000,-0.250000,0.055026,0.024321,-0.249160,0.098464,-0.054938,-0.249164,0.000000,
225832769,0.084328,16.862690,1,0.993713,-0.010193,-0.015686,-0.110413,0.060000,0.050000,-0.220000,0.075859,0.030405,-0.218680,0.089783,-0.069181,-0.219016,0.000000,
225841913,-0.286246,16.871976,1,0.993713,-0.010193,-0.015686,-0.110413,0.050000,0.010000,-0.240000,0.057896,-0.006895,-0.238329,-0.128469,-0.354335,-0.238116,0.000000,
225854493,0.451348,16.871976,1,0.993713,-0.010193,-0.015686,-0.110413,0.020000,0.040000,-0.230000,0.034945,0.029178,-0.229842,0.203817,0.069032,-0.229933,0.000000,
225862671,0.175576,16.867333,1,0.993713,-0.010193,-0.015686,-0.110413,0.020000,0.030000,-0.250000,0.033326,0.018950,-0.249660,0.187965,0.042157,-0.249443,0.000000,
225871923,-0.377998,16.867333,1,0.993713,-0.010193,-0.015686,-0.110413,0.040000,0.040000,-0.250000,0.055026,0.024321,-0.249160,-0.139126,-0.381903,-0.249163,0.000000,
225884401,-0.195533,16.876620,1,0.993713,-0.010193,-0.015686,-0.110413,0.060000,0.050000,-0.240000,0.076437,0.029930,-0.238666,-0.176670,-0.426460,-0.238782,0.000000,
225892777,-0.471275,16.871976,1,0.993713,-0.010193,-0.015686,-0.110413,0.040000,0.020000,-0.240000,0.050342,0.005050,-0.238831,-0.351443,-0.686536,-0.238830,0.000000,
225901891,0.082284,16.871976,1,0.993713,-0.010193,-0.015686,-0.110413,0.040000,0.030000,-0.260000,0.053118,0.014330,-0.258985,-0.106722,-0.362397,-0.258763,0.000000,
225914457,-0.195533,16.876620,1,0.993713,-0.010193,-0.015686,-0.110413,0.040000,0.050000,-0.240000,0.056935,0.034313,-0.239335,-0.162873,-0.430626,-0.239549,0.000000,
225922648,-0.193473,16.867333,1,0.993713,-0.010193,-0.015686,-0.110413,0.030000,0.040000,-0.250000,0.045275,0.026513,-0.249494,-0.184187,-0.459567,-0.249384,0.000000,
225931877,-0.563026,16.867333,1,0.993713,-0.010193,-0.015686,-0.110413,0.040000,0.030000,-0.250000,0.052829,0.014567,-0.248992,-0.407637,-0.744494,-0.248996,0.000000,
225941450,-0.010490,16.876620,1,0.993713,-0.010193,-0.015686,-0.110413,0.030000,0.030000,-0.230000,0.042499,0.017233,-0.229340,-0.184974,-0.454035,-0.229557,0.000000,
225954281,-0.008949,16.867333,1,0.993713,-0.010193,-0.015686,-0.110413,0.020000,0.040000,-0.240000,0.035235,0.028941,-0.239835,-0.088487,-0.325250,-0.239722,0.000000,
225962637,-0.100700,16.862690,1,0.993713,-0.010193,-0.015686,-0.110413,0.020000,0.030000,-0.250000,0.033326,0.018950,-0.249660,-0.098317,-0.338301,-0.249551,0.000000,
225971869,0.175576,16.867333,1,0.993713,-0.010193,-0.015686,-0.110413,0.020000,0.020000,-0.240000,0.030839,0.009433,-0.239499,0.057126,-0.131896,-0.239610,0.000000,
225984432,0.266808,16.871976,1,0.993713,-0.010193,-0.015686,-0.110413,0.020000,0.040000,-0.230000,0.034945,0.029178,-0.229842,0.177280,0.021201,-0.229950,0.000000,
225992807,0.177117,16.858047,1,0.993713,-0.010193,-0.015686,-0.110413,0.010000,0.020000,-0.240000,0.021088,0.011624,-0.239834,0.177354,0.019049,-0.239725,0.000000,
226001897,0.175576,16.867333,1,0.993713,-0.010193,-0.015686,-0.110413,0.040000,0.040000,-0.230000,0.054448,0.024796,-0.229174,0.176489,0.015620,-0.229290,0.000000,
226014375,0.452889,16.862690,1,0.993713,-0.010193,-0.015686,-0.110413,0.030000,0.030000,-0.240000,0.042788,0.016996,-0.239333,0.337178,0.215885,-0.239222,0.000000,
226022759,-0.008949,16.867333,1,0.993713,-0.010193,-0.015686,-0.110413,0.010000,0.020000,-0.240000,0.021088,0.011624,-0.239834,0.137848,-0.089427,-0.239827,0.000000,
226031882,0.084328,16.862690,1,0.993713,-0.010193,-0.015686,-0.110413,0.010000,0.040000,-0.220000,0.024905,0.031607,-0.220184,0.106051,-0.131785,-0.220400,0.000000,
226044554,-0.008949,16.867333,1,0.993713,-0.010193,-0.015686,-0.110413,0.020000,0.020000,-0.240000,0.030839,0.009433,-0.239499,0.037561,-0.219454,-0.239289,0.000000,
226052732,0.730706,16.858047,1,0.993713,-0.010193,-0.015686,-0.110413,0.020000,0.020000,-0.260000,0.031418,0.008958,-0.259485,0.438569,0.392004,-0.259263,0.000000,
226061940,0.175576,16.867333,1,0.993713,-0.010193,-0.015686,-0.110413,0.030000,0.020000,-0.240000,0.040591,0.007242,-0.239165,0.289990,0.192927,-0.239387,0.000000,
226074435,0.084328,16.862690,1,0.993713,-0.010193,-0.015686,-0.110413,0.030000,0.040000,-0.240000,0.044986,0.026750,-0.239501,0.172935,0.038240,-0.239500,0.000000,
226082809,0.175576,16.867333,1,0.993713,-0.010193,-0.015686,-0.110413,0.030000,0.020000,-0.220000,0.040012,0.007716,-0.219179,0.174782,0.038725,-0.219403,0.000000,
226091922,0.360101,16.867333,1,0.993713,-0.010193,-0.015686,-0.110413,0.040000,0.010000,-0.230000,0.047855,-0.004467,-0.228670,0.282371,0.176466,-0.228568,0.000000,
226104494,-0.193473,16.867333,1,0.993713,-0.010193,-0.015686,-0.110413,0.040000,0.040000,-0.240000,0.054737,0.024559,-0.239167,0.008198,-0.176753,-0.239050,0.000000,
226112853,0.177117,16.858047,1,0.993713,-0.010193,-0.015686,-0.110413,0.030000,0.030000,-0.250000,0.043077,0.016758,-0.249326,0.104886,-0.029993,-0.249213,0.000000,
226121997,-0.377998,16.867333,1,0.993713,-0.010193,-0.015686,-0.110413,0.010000,0.040000,-0.240000,0.025483,0.031132,-0.240170,-0.174865,-0.396829,-0.240269,0.000000,
226134612,-0.008949,16.867333,1,0.993713,-0.010193,-0.015686,-0.110413,0.000000,0.020000,-0.220000,0.010758,0.014289,-0.220182,-0.083511,-0.277213,-0.220403,0.000000,
226142774,0.545663,16.858047,1,0.993713,-0.010193,-0.015686,-0.110413,0.040000,0.040000,-0.250000,0.055026,0.024321,-0.249160,0.279819,0.276820,-0.248843,0.000000,
226151983,0.175576,16.867333,1,0.993713,-0.010193,-0.015686,-0.110413,0.050000,0.020000,-0.240000,0.060093,0.002859,-0.238497,0.222042,0.196695,-0.238611,0.000000,
226164552,-0.010490,16.876620,1,0.993713,-0.010193,-0.015686,-0.110413,0.040000,0.040000,-0.240000,0.054737,0.024559,-0.239167,0.089431,0.022194,-0.239161,0.000000,
226172725,-0.933585,16.876620,1,0.993713,-0.010193,-0.015686,-0.110413,0.040000,0.020000,-0.250000,0.050631,0.004813,-0.248824,-0.504810,-0.882032,-0.248717,0.000000,
226181956,-0.193473,16.867333,1,0.993713,-0.010193,-0.015686,-0.110413,0.050000,0.030000,-0.240000,0.062291,0.012613,-0.238665,-0.332815,-0.651548,-0.238775,0.000000,
226194433,0.174035,16.876620,1,0.993713,-0.010193,-0.015686,-0.110413,0.030000,0.030000,-0.240000,0.042788,0.016996,-0.239333,-0.046585,-0.280191,-0.239327,0.000000,
226202809,-0.471275,16.871976,1,0.993713,-0.010193,-0.015686,-0.110413,0.030000,0.030000,-0.250000,0.043077,0.016758,-0.249326,-0.295740,-0.655370,-0.249216,0.000000,
226212017,-0.010490,16.876620,1,0.993713,-0.010193,-0.015686,-0.110413,0.020000,0.040000,-0.240000,0.035235,0.028941,-0.239835,-0.136686,-0.442187,-0.239939,0.000000,
226232297,0.360101,16.867333,1,0.993713,-0.010193,-0.015686,-0.110413,0.050000,0.030000,-0.240000,0.062291,0.012613,-0.238665,0.145733,-0.078977,-0.238679,0.000000,
226241758,0.084328,16.862690,1,0.993713,-0.010193,-0.015686,-0.110413,0.030000,0.040000,-0.240000,0.044986,0.026750,-0.239501,0.108613,-0.155673,-0.239492,0.000000,
226251465,-0.008949,16.867333,1,0.993713,-0.010193,-0.015686,-0.110413,0.040000,0.030000,-0.240000,0.052540,0.014804,-0.238999,0.038435,-0.267727,-0.239004,0.000000,
226261416,-0.098655,16.853403,1,0.993713,-0.010193,-0.015686,-0.110413,0.020000,0.040000,-0.240000,0.035235,0.028941,-0.239835,-0.043935,-0.383492,-0.239826,0.000000,
226274389,-0.006904,16.858047,1,0.993713,-0.010193,-0.015686,-0.110413,0.030000,0.050000,-0.250000,0.047473,0.036267,-0.249662,-0.027348,-0.357369,-0.249554,0.000000,
226282765,-0.006904,16.858047,1,0.993713,-0.010193,-0.015686,-0.110413,0.030000,0.030000,-0.230000,0.042499,0.017233,-0.229340,-0.018449,-0.340734,-0.229563,0.000000,
226291999,-0.100700,16.862690,1,0.993713,-0.010193,-0.015686,-0.110413,0.030000,0.030000,-0.240000,0.042788,0.016996,-0.239333,-0.069230,-0.405217,-0.239225,0.000000,
226304556,0.545663,16.858047,1,0.993713,-0.010193,-0.015686,-0.110413,0.020000,0.050000,-0.230000,0.037143,0.038932,-0.230010,0.282804,0.041809,-0.230112,0.000000,
226312913,0.270394,16.853403,1,0.993713,-0.010193,-0.015686,-0.110413,0.020000,0.030000,-0.250000,0.033326,0.018950,-0.249660,0.275935,0.028994,-0.249445,0.000000,
226322046,-0.193473,16.867333,1,0.993713,-0.010193,-0.015686,-0.110413,0.050000,0.040000,-0.250000,0.064778,0.022130,-0.248825,0.004645,-0.319989,-0.248832,0.000000,
226334611,0.175576,16.867333,1,0.993713,-0.010193,-0.015686,-0.110413,0.030000,0.030000,-0.250000,0.043077,0.016758,-0.249326,0.099831,-0.200011,-0.249321,0.000000,
226342805,0.545663,16.858047,1,0.993713,-0.010193,-0.015686,-0.110413,0.060000,0.040000,-0.240000,0.074240,0.020176,-0.238498,0.357084,0.181928,-0.238617,0.000000,
226352057,0.360101,16.867333,1,0.993713,-0.010193,-0.015686,-0.110413,0.060000,0.040000,-0.250000,0.074529,0.019939,-0.248491,0.360501,0.181834,-0.248382,0.000000,
226364614,0.084328,16.862690,1,0.993713,-0.010193,-0.015686,-0.110413,0.020000,0.040000,-0.200000,0.034078,0.029890,-0.199863,0.202433,-0.020387,-0.200398,0.000000,
226372796,-0.193473,16.867333,1,0.993713,-0.010193,-0.015686,-0.110413,0.050000,0.070000,-0.240000,0.071081,0.051630,-0.239336,-0.027660,-0.364073,-0.238907,0.000000,
226382030,0.360101,16.867333,1,0.993713,-0.010193,-0.015686,-0.110413,0.030000,0.040000,-0.250000,0.045275,0.026513,-0.249494,0.193240,-0.082496,-0.249377,0.000000,
226394601,0.266808,16.871976,1,0.993713,-0.010193,-0.015686,-0.110413,0.020000,0.030000,-0.230000,0.032748,0.019424,-0.229674,0.234897,-0.032143,-0.229891,0.000000,
226402915,0.175576,16.867333,1,0.993713,-0.010193,-0.015686,-0.110413,0.050000,0.030000,-0.240000,0.062291,0.012613,-0.238665,0.200163,-0.085448,-0.238568,0.000000,
226412039,-0.193473,16.867333,1,0.993713,-0.010193,-0.015686,-0.110413,-0.010000,-0.020000,-0.240000,-0.007205,-0.023010,-0.239830,-0.028329,-0.378682,-0.239816,0.000000,
226424599,0.175576,16.867333,1,0.993713,-0.010193,-0.015686,-0.110413,0.020000,0.000000,-0.230000,0.026155,-0.009838,-0.229171,0.085270,-0.234203,-0.229288,0.000000,
226432973,-0.101722,16.871976,1,0.993713,-0.010193,-0.015686,-0.110413,0.030000,0.030000,-0.260000,0.043367,0.016521,-0.259319,-0.025329,-0.398169,-0.258988,0.000000,
226442098,0.360101,16.867333,1,0.993713,-0.010193,-0.015686,-0.110413,0.020000,0.030000,-0.260000,0.033615,0.018712,-0.259653,0.194009,-0.114284,-0.259646,0.000000,
226454628,0.175576,16.867333,1,0.993713,-0.010193,-0.015686,-0.110413,0.020000,0.060000,-0.240000,0.039630,0.048449,-0.240171,0.181857,-0.130654,-0.240386,0.000000,
226463004,0.084328,16.862690,1,0.993713,-0.010193,-0.015686,-0.110413,0.020000,0.070000,-0.240000,0.041827,0.058203,-0.240339,0.124097,-0.217099,-0.240340,0.000000,
226472100,0.266808,16.871976,1,0.993713,-0.010193,-0.015686,-0.110413,0.030000,0.070000,-0.240000,0.051579,0.056012,-0.240005,0.204674,-0.113166,-0.240009,0.000000,
226484639,-0.101722,16.871976,1,0.993713,-0.010193,-0.015686,-0.110413,0.040000,0.030000,-0.230000,0.052250,0.015042,-0.229006,0.025358,-0.338031,-0.229127,0.000000,
226492951,-0.008949,16.867333,1,0.993713,-0.010193,-0.015686,-0.110474,0.030000,-0.010000,-0.240000,0.033996,-0.022025,-0.238661,0.002612,-0.369754,-0.238556,0.000000,
226502060,0.360101,16.867333,1,0.993713,-0.010193,-0.015686,-0.110474,0.000000,0.000000,-0.240000,0.006941,-0.005694,-0.239832,0.206034,-0.106741,-0.239818,0.000000,
226514757,0.082284,16.871976,1,0.993713,-0.010193,-0.015686,-0.110474,0.000000,0.010000,-0.230000,0.008851,0.004297,-0.230007,0.132802,-0.199382,-0.230115,0.000000,
226522918,0.175576,16.867333,1,0.993713,-0.010193,-0.015686,-0.110474,0.000000,0.000000,-0.260000,0.007520,-0.006168,-0.259818,0.156016,-0.164088,-0.259491,0.000000,
226532150,0.175576,16.867333,1,0.993713,-0.010193,-0.015686,-0.110474,0.030000,0.040000,-0.240000,0.044990,0.026745,-0.239501,0.165806,-0.151844,-0.239721,0.000000,
226544767,-0.100700,16.862690,1,0.993713,-0.010193,-0.015686,-0.110474,0.060000,0.050000,-0.250000,0.076731,0.029684,-0.248659,0.009102,-0.349466,-0.248561,0.000000,
