Code compiled on Dec 22 2025 at 15:34:53
﻿Simulation Mode (T/F),F
Airbrakes Enabled (T/F),T
Log File Name (max 7 chars uppercase),FLIGHT
Sim File Name (if applicable),Sim
Burnout Mass (kg),0.637
Air Density (kg/m^3),1.18
Rocket CD,0.71
Airbrake CD,0.8
Rocket Area (m^2),0.00243
Kalman Model Y STD,0.05
Kalman Model V STD,0.1
Kalman Model A STD,0.015
Kalman Measurement Y STD,0.26
Kalman Measurement A STD,0.013
Target Apogee (m),183
Launch Acceleration Threshold (m/s^2),20
Coast Lockout (s),1.5
KP (1/s),0.24
Altimeter lockout (s),120

Calibration point: 198.598961
Time (us),Altitude AGL (m),Temperature (deg C),Mode,IMU Quat W,IMU Quat X,IMU Quat Y,IMU Quat Z,IMU Local Acceleration X,IMU Local Acceleration Y,IMU Local Acceleration Z,IMU Global Acceleration x,IMU Global Acceleration y,IMU Global Acceleration z,State Estimation y,State Estimation v,State Estimation a,Servo deployment,
352859148,0.385719,16.444780,1,-0.487854,0.009277,-0.007690,-0.872864,0.040000,0.010000,-0.060000,-0.028953,0.027473,-0.060887,0.000000,0.000000,0.000000,0.000000,
352871177,0.017204,16.444780,1,-0.487854,0.009277,-0.007690,-0.872864,0.020000,-0.020000,-0.070000,0.007166,0.025936,-0.070541,0.007309,-0.000839,-0.069755,0.000000,
352880932,0.383659,16.454067,1,-0.487854,0.009277,-0.007690,-0.872864,0.020000,-0.020000,-0.060000,0.007080,0.026161,-0.060544,0.209847,0.001664,-0.060646,0.000000,
352890760,-0.079659,16.467998,1,-0.487854,0.009277,-0.007690,-0.872864,0.010000,0.000000,-0.040000,-0.004891,0.007616,-0.040225,0.047386,-0.003443,-0.040450,0.000000,
352903528,0.657874,16.467998,1,-0.487854,0.009277,-0.007690,-0.872864,0.040000,0.000000,-0.060000,-0.020434,0.032712,-0.060931,0.392766,0.011664,-0.060705,0.000000,
352912193,-0.543999,16.481928,1,-0.487854,0.009277,-0.007690,-0.872864,0.030000,0.010000,-0.050000,-0.023800,0.019182,-0.050653,-0.138163,-0.030009,-0.050763,0.000000,
352921641,0.006950,16.491215,1,-0.487854,0.009277,-0.007690,-0.872864,0.040000,-0.020000,-0.050000,-0.003485,0.043416,-0.051021,-0.056160,-0.023696,-0.051018,0.000000,
352934279,0.560493,16.491215,1,-0.487854,0.009277,-0.007690,-0.872864,0.040000,0.000000,-0.050000,-0.020521,0.032937,-0.050933,0.293443,0.010547,-0.050934,0.000000,
352942454,0.464637,16.505146,1,-0.487854,0.009277,-0.007690,-0.872864,0.020000,0.000000,-0.040000,-0.010130,0.016131,-0.040462,0.390707,0.024094,-0.040578,0.000000,
352951649,0.371879,16.509790,1,-0.487854,0.009277,-0.007690,-0.872864,0.030000,-0.030000,-0.040000,0.010185,0.040365,-0.040831,0.380241,0.022271,-0.040828,0.000000,
352964253,0.185310,16.519077,1,-0.487854,0.009277,-0.007690,-0.872864,0.020000,-0.010000,-0.050000,-0.001525,0.021146,-0.050503,0.269795,0.004846,-0.050397,0.000000,
352972425,0.001319,16.519077,1,-0.487854,0.009277,-0.007690,-0.872864,0.040000,-0.010000,-0.050000,-0.012003,0.038176,-0.050977,0.117268,-0.027140,-0.050971,0.000000,
352981662,-0.553734,16.528364,1,-0.487854,0.009277,-0.007690,-0.872864,0.030000,0.000000,-0.050000,-0.015282,0.024422,-0.050696,-0.264174,-0.100163,-0.050699,0.000000,
352991278,0.552284,16.528364,1,-0.487854,0.009277,-0.007690,-0.872864,0.020000,0.010000,-0.040000,-0.018648,0.010892,-0.040419,0.198831,-0.004795,-0.040532,0.000000,
353004096,-0.002785,16.537651,1,-0.487854,0.009277,-0.007690,-0.872864,0.030000,-0.010000,-0.050000,-0.006764,0.029661,-0.050740,0.084062,-0.031681,-0.050628,0.000000,
353012486,0.734245,16.537651,1,-0.487854,0.009277,-0.007690,-0.872864,0.040000,-0.020000,-0.060000,-0.003398,0.043191,-0.061018,0.453877,0.078275,-0.060904,0.000000,
353021648,-0.189339,16.546938,1,-0.487854,0.009277,-0.007690,-0.872864,0.030000,-0.020000,-0.040000,0.001667,0.035126,-0.040787,0.088705,-0.020558,-0.041009,0.000000,
353034280,0.272956,16.542294,1,-0.487854,0.009277,-0.007690,-0.872864,0.030000,0.000000,-0.050000,-0.015282,0.024422,-0.050696,0.193363,0.008054,-0.050590,0.000000,
353042464,-0.189339,16.546938,1,-0.487854,0.009277,-0.007690,-0.872864,0.030000,-0.010000,-0.070000,-0.006591,0.029212,-0.070734,-0.024604,-0.070503,-0.070512,0.000000,
353051601,0.177619,16.556225,1,-0.487854,0.009277,-0.007690,-0.872864,0.030000,-0.010000,-0.040000,-0.006851,0.029886,-0.040743,0.089870,-0.034342,-0.041071,0.000000,
353064209,-0.284157,16.560868,1,-0.487854,0.009277,-0.007690,-0.872864,0.010000,0.000000,-0.060000,-0.004717,0.007167,-0.060220,-0.123761,-0.105039,-0.060009,0.000000,
353072383,-0.284157,16.560868,1,-0.487854,0.009277,-0.007690,-0.872864,0.040000,-0.020000,-0.050000,-0.003485,0.043416,-0.051021,-0.216092,-0.143683,-0.051120,0.000000,
353081513,-0.193444,16.565512,1,-0.487854,0.009277,-0.007690,-0.872864,0.020000,-0.020000,-0.070000,0.007166,0.025936,-0.070541,-0.204503,-0.139569,-0.070327,0.000000,
353094140,-0.008935,16.565512,1,-0.487854,0.009277,-0.007690,-0.872864,0.020000,0.010000,-0.060000,-0.018475,0.010442,-0.060413,-0.094686,-0.098130,-0.060522,0.000000,
353102312,-0.286202,16.570155,1,-0.487854,0.009277,-0.007690,-0.872864,0.030000,0.000000,-0.070000,-0.015109,0.023972,-0.070691,-0.204820,-0.151018,-0.070579,0.000000,
353111564,-0.286202,16.570155,1,-0.487854,0.009277,-0.007690,-0.872864,0.040000,-0.010000,-0.060000,-0.011916,0.037952,-0.060974,-0.252628,-0.171055,-0.061080,0.000000,
353124164,0.082801,16.570155,1,-0.487854,0.009277,-0.007690,-0.872864,0.010000,0.010000,-0.050000,-0.013322,0.002152,-0.050179,-0.063201,-0.089154,-0.050299,0.000000,
353132359,-0.470193,16.570155,1,-0.487854,0.009277,-0.007690,-0.872864,0.040000,-0.020000,-0.050000,-0.003485,0.043416,-0.051021,-0.296507,-0.214638,-0.051013,0.000000,
353141491,0.449775,16.579442,1,-0.487854,0.009277,-0.007690,-0.872864,0.020000,-0.010000,-0.060000,-0.001438,0.020921,-0.060500,0.127437,-0.015029,-0.060396,0.000000,
353154080,-0.103753,16.579442,1,-0.487854,0.009277,-0.007690,-0.872864,0.020000,0.010000,-0.040000,-0.018648,0.010892,-0.040419,-0.004919,-0.078427,-0.040639,0.000000,
353162271,0.358039,16.574799,1,-0.487854,0.009277,-0.007690,-0.872864,0.040000,-0.020000,-0.040000,-0.003572,0.043641,-0.041024,0.202039,0.044339,-0.041020,0.000000,
353171413,-0.101708,16.570155,1,-0.487854,0.009277,-0.007690,-0.872864,0.030000,0.000000,-0.030000,-0.015456,0.024871,-0.030702,0.028958,-0.045647,-0.030816,0.000000,
353183991,0.080757,16.579442,1,-0.487854,0.009277,-0.007690,-0.872864,0.030000,0.000000,-0.040000,-0.015369,0.024646,-0.040699,0.058019,-0.030683,-0.040590,0.000000,
353192183,-0.194985,16.574799,1,-0.487854,0.009277,-0.007690,-0.872864,0.040000,-0.010000,-0.060000,-0.011916,0.037952,-0.060974,-0.087078,-0.124957,-0.060750,0.000000,
353201409,0.080757,16.579442,1,-0.487854,0.009277,-0.007690,-0.872864,0.020000,0.000000,-0.050000,-0.010043,0.015906,-0.050459,0.007703,-0.071397,-0.050573,0.000000,
353214053,0.633781,16.579442,1,-0.487854,0.009277,-0.007690,-0.872864,0.030000,-0.010000,-0.040000,-0.006851,0.029886,-0.040743,0.365391,0.132353,-0.040851,0.000000,
353222224,0.263221,16.588729,1,-0.487854,0.009277,-0.007690,-0.872864,0.040000,-0.020000,-0.050000,-0.003485,0.043416,-0.051021,0.307922,0.090736,-0.050909,0.000000,
353231368,0.171470,16.584086,1,-0.487854,0.009277,-0.007690,-0.872864,0.000000,-0.020000,-0.050000,0.017471,0.009355,-0.050073,0.230697,0.042794,-0.050082,0.000000,
353243971,0.355979,16.584086,1,-0.487854,0.009277,-0.007690,-0.872864,0.030000,0.000000,-0.050000,-0.015282,0.024422,-0.050696,0.303044,0.085961,-0.050690,0.000000,
353252155,-0.105797,16.588729,1,-0.487854,0.009277,-0.007690,-0.872864,0.010000,0.000000,-0.060000,-0.004717,0.007167,-0.060220,0.069271,-0.090819,-0.060115,0.000000,
353261322,-0.289803,16.588729,1,-0.487854,0.009277,-0.007690,-0.872864,0.020000,0.000000,-0.030000,-0.010217,0.016356,-0.030465,-0.137104,-0.224784,-0.030792,0.000000,
353273949,0.447212,16.588729,1,-0.487854,0.009277,-0.007690,-0.872864,0.030000,-0.010000,-0.050000,-0.006764,0.029661,-0.050740,0.195270,-0.006929,-0.050520,0.000000,
353282124,-0.103753,16.579442,1,-0.487854,0.009277,-0.007690,-0.872864,-0.010000,-0.010000,-0.070000,0.014365,-0.004849,-0.069786,0.023573,-0.145090,-0.069574,0.000000,
353291287,-0.014580,16.593373,1,-0.487854,0.009277,-0.007690,-0.872864,0.030000,0.000000,-0.050000,-0.015282,0.024422,-0.050696,0.000387,-0.160665,-0.050904,0.000000,
353303895,0.171470,16.584086,1,-0.487854,0.009277,-0.007690,-0.872864,0.030000,-0.010000,-0.050000,-0.006764,0.029661,-0.050740,0.096582,-0.093422,-0.050742,0.000000,
353312068,0.171470,16.584086,1,-0.487854,0.009277,-0.007690,-0.872864,0.010000,-0.010000,-0.050000,0.003714,0.012631,-0.050266,0.138835,-0.057386,-0.050271,0.000000,
353321244,0.263221,16.588729,1,-0.487854,0.009277,-0.007690,-0.872864,0.040000,0.010000,-0.040000,-0.029126,0.027922,-0.040893,0.209602,-0.005720,-0.040996,0.000000,
353333826,0.355979,16.584086,1,-0.487854,0.009277,-0.007690,-0.872864,0.040000,-0.020000,-0.070000,-0.003312,0.042966,-0.071015,0.293627,0.054703,-0.070684,0.000000,
353342001,0.263221,16.588729,1,-0.487854,0.009277,-0.007690,-0.872864,0.010000,-0.030000,-0.050000,0.020750,0.023110,-0.050354,0.276594,0.038729,-0.050578,0.000000,
353351240,-0.289803,16.588729,1,-0.487854,0.009277,-0.007690,-0.872864,0.040000,-0.020000,-0.040000,-0.003572,0.043641,-0.041024,-0.047911,-0.210720,-0.041129,0.000000,
353363828,-0.014580,16.593373,1,-0.487854,0.009277,-0.007690,-0.872864,0.050000,0.000000,-0.040000,-0.025847,0.041677,-0.041173,-0.031401,-0.196527,-0.041173,0.000000,
353371992,0.447212,16.588729,1,-0.487854,0.009277,-0.007690,-0.872864,0.030000,-0.020000,-0.050000,0.001754,0.034901,-0.050784,0.242329,0.060176,-0.050678,0.000000,
353381131,0.261161,16.598016,1,-0.487854,0.009277,-0.007690,-0.872864,0.030000,0.010000,-0.070000,-0.023627,0.018733,-0.070647,0.253683,0.068199,-0.070427,0.000000,
353393702,-0.291848,16.598016,1,-0.487854,0.009277,-0.007690,-0.872864,0.020000,-0.030000,-0.070000,0.015685,0.031176,-0.070585,-0.059325,-0.182798,-0.070583,0.000000,
353402064,0.171470,16.584086,1,-0.487854,0.009277,-0.007690,-0.872864,0.010000,-0.020000,-0.070000,0.012405,0.017421,-0.070304,0.072022,-0.054400,-0.070307,0.000000,
353411197,0.261161,16.598016,1,-0.487854,0.009277,-0.007690,-0.872864,0.040000,-0.030000,-0.050000,0.005033,0.048655,-0.051065,0.180142,0.036814,-0.051277,0.000000,
353423786,0.171470,16.584086,1,-0.487854,0.009277,-0.007690,-0.872864,0.030000,-0.010000,-0.050000,-0.006764,0.029661,-0.050740,0.175609,0.032020,-0.050746,0.000000,
353431972,0.169929,16.593373,1,-0.487854,0.009277,-0.007690,-0.872864,0.050000,-0.010000,-0.050000,-0.017242,0.046692,-0.051214,0.172597,0.028294,-0.051209,0.000000,
353441113,-0.016625,16.602660,1,-0.487854,0.009277,-0.007690,-0.872864,0.050000,-0.010000,-0.050000,-0.017242,0.046692,-0.051214,0.064149,-0.066515,-0.051214,0.000000,
353450711,-0.291848,16.598016,1,-0.487854,0.009277,-0.007690,-0.872864,0.030000,0.000000,-0.030000,-0.015456,0.024871,-0.030702,-0.141040,-0.243104,-0.030928,0.000000,
353463544,-0.291848,16.598016,1,-0.487854,0.009277,-0.007690,-0.872864,0.040000,-0.010000,-0.040000,-0.012090,0.038401,-0.040980,-0.231115,-0.320745,-0.040869,0.000000,
353471914,0.538963,16.593373,1,-0.487854,0.009277,-0.007690,-0.872864,0.010000,0.000000,-0.080000,-0.004544,0.006717,-0.080214,0.210458,0.156962,-0.079780,0.000000,
353481040,-0.476342,16.598016,1,-0.487854,0.009277,-0.007690,-0.872864,0.020000,-0.010000,-0.050000,-0.001525,0.021146,-0.050503,-0.183093,-0.209060,-0.050826,0.000000,
353493682,0.076652,16.598016,1,-0.487854,0.009277,-0.007690,-0.872864,0.020000,-0.020000,-0.040000,0.006906,0.026610,-0.040550,-0.035961,-0.074124,-0.040663,0.000000,
353501854,-0.199074,16.593373,1,-0.487854,0.009277,-0.007690,-0.872864,0.030000,-0.020000,-0.030000,0.001580,0.035350,-0.030790,-0.130665,-0.177413,-0.030899,0.000000,
353510995,-0.107339,16.598016,1,-0.487854,0.009277,-0.007690,-0.872864,0.040000,0.000000,-0.040000,-0.020608,0.033162,-0.040936,-0.118873,-0.165230,-0.040826,0.000000,
353523591,0.168403,16.602660,1,-0.487854,0.009277,-0.007690,-0.872864,0.060000,-0.010000,-0.060000,-0.022394,0.054982,-0.061448,0.044746,-0.012851,-0.061221,0.000000,
353531765,-0.293893,16.607303,1,-0.487854,0.009277,-0.007690,-0.872864,0.010000,0.010000,-0.060000,-0.013236,0.001927,-0.060176,-0.150793,-0.232357,-0.060187,0.000000,
353541064,0.722968,16.593373,1,-0.487854,0.009277,-0.007690,-0.872864,0.040000,-0.010000,-0.050000,-0.012003,0.038176,-0.050977,0.349846,0.249654,-0.051079,0.000000,
353553653,-0.289803,16.588729,1,-0.487854,0.009277,-0.007690,-0.872864,0.020000,-0.030000,-0.060000,0.015598,0.031400,-0.060588,-0.016237,-0.104477,-0.060483,0.000000,
353561863,0.168403,16.602660,1,-0.487854,0.009277,-0.007690,-0.872864,0.020000,-0.020000,-0.060000,0.007080,0.026161,-0.060544,0.089526,0.017908,-0.060543,0.000000,
353571004,0.169929,16.593373,1,-0.487854,0.009277,-0.007690,-0.872864,0.030000,-0.010000,-0.050000,-0.006764,0.029661,-0.050740,0.135970,0.063136,-0.050848,0.000000,
353583582,-0.383584,16.593373,1,-0.487854,0.009277,-0.007690,-0.872864,0.030000,0.000000,-0.050000,-0.015282,0.024422,-0.050696,-0.163213,-0.229275,-0.050698,0.000000,
353591776,0.722968,16.593373,1,-0.487854,0.009277,-0.007690,-0.872864,0.030000,0.000000,-0.050000,-0.015282,0.024422,-0.050696,0.346820,0.372226,-0.050696,0.000000,
353600916,-0.014580,16.593373,1,-0.487854,0.009277,-0.007690,-0.872864,0.040000,0.000000,-0.040000,-0.020608,0.033162,-0.040936,0.142120,0.162196,-0.041044,0.000000,
353613493,-0.201134,16.602660,1,-0.487854,0.009277,-0.007690,-0.872864,0.020000,-0.010000,-0.060000,-0.001438,0.020921,-0.060500,-0.054109,-0.035510,-0.060286,0.000000,
353621858,-0.014580,16.593373,1,-0.487854,0.009277,-0.007690,-0.872864,0.040000,-0.020000,-0.050000,-0.003485,0.043416,-0.051021,-0.031559,-0.008505,-0.051123,0.000000,
353630997,0.261161,16.598016,1,-0.487854,0.009277,-0.007690,-0.872864,0.030000,-0.020000,-0.070000,0.001927,0.034451,-0.070778,0.137015,0.166055,-0.070562,0.000000,
353643578,0.631736,16.588729,1,-0.487854,0.009277,-0.007690,-0.872864,0.030000,-0.010000,-0.050000,-0.006764,0.029661,-0.050740,0.425002,0.456408,-0.050959,0.000000,
353651782,-0.014580,16.593373,1,-0.487854,0.009277,-0.007690,-0.872864,0.020000,-0.010000,-0.070000,-0.001352,0.020696,-0.070497,0.174588,0.144153,-0.070282,0.000000,
353660923,0.538963,16.593373,1,-0.487854,0.009277,-0.007690,-0.872864,0.030000,0.000000,-0.030000,-0.015456,0.024871,-0.030702,0.385869,0.364295,-0.031138,0.000000,
353673498,-0.201134,16.602660,1,-0.487854,0.009277,-0.007690,-0.872864,0.030000,0.000000,-0.050000,-0.015282,0.024422,-0.050696,0.051119,0.013076,-0.050481,0.000000,
353681687,-0.109398,16.607303,1,-0.487854,0.009277,-0.007690,-0.872864,0.040000,-0.010000,-0.050000,-0.012003,0.038176,-0.050977,-0.041612,-0.103077,-0.050972,0.000000,
353690865,0.352912,16.602660,1,-0.487854,0.009277,-0.007690,-0.872864,0.040000,0.010000,-0.060000,-0.028953,0.027473,-0.060887,0.184847,0.138938,-0.060778,0.000000,
353703453,-0.018166,16.611947,1,-0.487854,0.009277,-0.007690,-0.872864,0.010000,0.000000,-0.040000,-0.004891,0.007616,-0.040225,0.069189,0.014858,-0.040452,0.000000,
353711655,-0.107339,16.598016,1,-0.487854,0.009277,-0.007690,-0.872864,0.020000,0.010000,-0.040000,-0.018648,0.010892,-0.040419,-0.032828,-0.115070,-0.040419,0.000000,
353720831,0.076652,16.598016,1,-0.487854,0.009277,-0.007690,-0.872864,0.040000,-0.020000,-0.020000,-0.003746,0.044090,-0.021030,0.029241,-0.046741,-0.021243,0.000000,
353733411,0.261161,16.598016,1,-0.487854,0.009277,-0.007690,-0.872864,0.060000,-0.010000,-0.030000,-0.022655,0.055656,-0.031457,0.162817,0.096370,-0.031344,0.000000,
353741605,0.354957,16.593373,1,-0.487854,0.009277,-0.007690,-0.872864,0.040000,0.010000,-0.060000,-0.028953,0.027473,-0.060887,0.274810,0.239084,-0.060561,0.000000,
353750857,0.261161,16.598016,1,-0.487854,0.009277,-0.007690,-0.872864,0.030000,-0.010000,-0.060000,-0.006677,0.029436,-0.060737,0.269147,0.229855,-0.060735,0.000000,
353763513,0.352912,16.602660,1,-0.487854,0.009277,-0.007690,-0.872864,0.020000,-0.020000,-0.040000,0.006906,0.026610,-0.040550,0.320536,0.282165,-0.040772,0.000000,
353771704,0.447212,16.588729,1,-0.487854,0.009277,-0.007690,-0.872864,0.050000,0.000000,-0.040000,-0.025847,0.041677,-0.041173,0.396197,0.378091,-0.041169,0.000000,
353780843,-0.199074,16.593373,1,-0.487854,0.009277,-0.007690,-0.872864,0.050000,0.000000,-0.070000,-0.025587,0.041002,-0.071165,0.056238,-0.006679,-0.070834,0.000000,
353813130,0.538963,16.593373,1,-0.487854,0.009277,-0.007690,-0.872864,0.060000,0.000000,-0.050000,-0.030999,0.049967,-0.051407,0.341450,0.298336,-0.051622,0.000000,
353821527,0.078712,16.588729,1,-0.487854,0.009277,-0.007690,-0.872864,0.030000,0.010000,-0.060000,-0.023714,0.018957,-0.060650,0.185325,-0.088963,-0.060550,0.000000,
353830664,-0.474297,16.588729,1,-0.487854,0.009277,-0.007690,-0.872864,0.040000,-0.020000,-0.030000,-0.003659,0.043865,-0.031027,-0.201487,-0.706928,-0.031352,0.000000,
353844446,0.078712,16.588729,1,-0.487854,0.009277,-0.007690,-0.872864,0.030000,0.000000,-0.060000,-0.015195,0.024197,-0.060694,-0.047881,-0.499969,-0.060370,0.000000,
353852061,0.171470,16.584086,1,-0.487854,0.009277,-0.007690,-0.872864,0.030000,0.000000,-0.060000,-0.015195,0.024197,-0.060694,0.075687,-0.318373,-0.060690,0.000000,
353860961,-0.105797,16.588729,1,-0.487854,0.009277,-0.007690,-0.872864,0.020000,0.010000,-0.060000,-0.018475,0.010442,-0.060413,-0.031838,-0.435398,-0.060416,0.000000,
353873415,-0.014580,16.593373,1,-0.487854,0.009277,-0.007690,-0.872864,0.040000,0.000000,-0.050000,-0.020521,0.032937,-0.050933,-0.027284,-0.425470,-0.051038,0.000000,
353881478,-0.014580,16.593373,1,-0.487854,0.009277,-0.007690,-0.872864,0.040000,0.000000,-0.050000,-0.020521,0.032937,-0.050933,-0.023368,-0.416560,-0.050935,0.000000,
353890609,0.169929,16.593373,1,-0.487854,0.009277,-0.007690,-0.872864,0.070000,-0.010000,-0.060000,-0.027633,0.063497,-0.061685,0.084254,-0.296783,-0.061567,0.000000,
353903190,0.169929,16.593373,1,-0.487854,0.009277,-0.007690,-0.872864,0.050000,0.020000,-0.060000,-0.042710,0.030748,-0.061080,0.130074,-0.244603,-0.061085,0.000000,
353911380,0.169929,16.593373,1,-0.487854,0.009277,-0.007690,-0.872864,0.070000,-0.010000,-0.070000,-0.027547,0.063272,-0.071682,0.151136,-0.215369,-0.071566,0.000000,
353920521,0.076652,16.598016,1,-0.487854,0.009277,-0.007690,-0.872864,0.010000,-0.020000,-0.040000,0.012145,0.018095,-0.040313,0.106206,-0.263268,-0.040657,0.000000,
353930092,0.538963,16.593373,1,-0.487854,0.009277,-0.007690,-0.872864,0.050000,0.000000,-0.040000,-0.025847,0.041677,-0.041173,0.353304,0.008961,-0.041168,0.000000,
353942969,0.816261,16.588729,1,-0.487854,0.009277,-0.007690,-0.872864,0.040000,-0.010000,-0.050000,-0.012003,0.038176,-0.050977,0.621597,0.307013,-0.050869,0.000000,
353951338,0.354957,16.593373,1,-0.487854,0.009277,-0.007690,-0.872864,0.060000,-0.010000,-0.070000,-0.022308,0.054757,-0.071445,0.469612,0.098382,-0.071219,0.000000,
353960473,0.538963,16.593373,1,-0.487854,0.009277,-0.007690,-0.872864,0.060000,0.010000,-0.040000,-0.039604,0.044952,-0.041367,0.510545,0.144067,-0.041696,0.000000,
353973080,0.722968,16.593373,1,-0.487854,0.009277,-0.007690,-0.872864,0.040000,0.000000,-0.030000,-0.020695,0.033386,-0.030939,0.635373,0.281079,-0.031058,0.000000,
353981256,0.352912,16.602660,1,-0.487854,0.009277,-0.007690,-0.872864,0.030000,-0.020000,-0.050000,0.001754,0.034901,-0.050784,0.474041,0.061475,-0.050567,0.000000,
353990423,0.445167,16.598016,1,-0.487854,0.009277,-0.007690,-0.872864,0.050000,0.000000,-0.050000,-0.025760,0.041452,-0.051170,0.457938,0.041989,-0.051164,0.000000,
354002991,0.536918,16.602660,1,-0.487854,0.009277,-0.007690,-0.872864,0.030000,-0.020000,-0.030000,0.001580,0.035350,-0.030790,0.504201,0.092923,-0.031014,0.000000,
354011166,0.907493,16.593373,1,-0.487854,0.009277,-0.007690,-0.872864,0.040000,-0.010000,-0.060000,-0.011916,0.037952,-0.060974,0.738607,0.407487,-0.060644,0.000000,
354020436,0.261161,16.598016,1,-0.487854,0.009277,-0.007690,-0.872864,0.000000,0.010000,-0.050000,-0.008083,-0.006363,-0.049942,0.466763,0.089852,-0.050060,0.000000,
354033018,-0.201134,16.602660,1,-0.487854,0.009277,-0.007690,-0.872864,0.020000,0.000000,-0.050000,-0.010043,0.015906,-0.050459,0.080949,-0.351723,-0.050455,0.000000,
354041208,0.261161,16.598016,1,-0.487854,0.009277,-0.007690,-0.872864,0.040000,-0.010000,-0.040000,-0.012090,0.038401,-0.040980,0.182509,-0.209472,-0.041085,0.000000,
354050349,0.445167,16.598016,1,-0.487854,0.009277,-0.007690,-0.872864,0.030000,0.010000,-0.040000,-0.023887,0.019407,-0.040656,0.332234,-0.033248,-0.040660,0.000000,
354062895,0.075111,16.607303,1,-0.487854,0.009277,-0.007690,-0.872864,0.050000,-0.010000,-0.050000,-0.017242,0.046692,-0.051214,0.182856,-0.204100,-0.051098,0.000000,
354071099,0.443122,16.607303,1,-0.487854,0.009277,-0.007690,-0.872864,0.020000,0.010000,-0.070000,-0.018388,0.010217,-0.070410,0.332030,0.002313,-0.070197,0.000000,
354080350,0.538963,16.593373,1,-0.487854,0.009277,-0.007690,-0.872864,0.010000,-0.020000,-0.060000,0.012319,0.017646,-0.060307,0.451551,0.141996,-0.060416,0.000000,
354092922,-0.016625,16.602660,1,-0.487854,0.009277,-0.007690,-0.872864,0.040000,-0.030000,-0.050000,0.005033,0.048655,-0.051065,0.181994,-0.173283,-0.051168,0.000000,
354101113,-0.293893,16.607303,1,-0.487854,0.009277,-0.007690,-0.872864,0.010000,-0.010000,-0.040000,0.003627,0.012856,-0.040269,-0.095334,-0.556669,-0.040389,0.000000,
354110255,-0.478402,16.607303,1,-0.487854,0.009277,-0.007690,-0.872864,0.010000,0.000000,-0.040000,-0.004891,0.007616,-0.040225,-0.321657,-0.819063,-0.040227,0.000000,
354122837,0.259117,16.607303,1,-0.487854,0.009277,-0.007690,-0.872864,0.010000,-0.040000,-0.050000,0.029268,0.028349,-0.050397,0.004631,-0.428644,-0.050285,0.000000,
354131040,0.261161,16.598016,1,-0.487854,0.009277,-0.007690,-0.872864,0.020000,0.020000,-0.040000,-0.027166,0.005652,-0.040375,0.149865,-0.221191,-0.040484,0.000000,
354140290,-0.293893,16.607303,1,-0.487854,0.009277,-0.007690,-0.872864,0.040000,-0.010000,-0.050000,-0.012003,0.038176,-0.050977,-0.108536,-0.527529,-0.050862,0.000000,
354152884,-0.480446,16.616590,1,-0.487854,0.009277,-0.007690,-0.872864,0.020000,0.000000,-0.070000,-0.009870,0.015457,-0.070454,-0.330817,-0.782367,-0.070238,0.000000,
354161057,0.076652,16.598016,1,-0.487854,0.009277,-0.007690,-0.872864,0.010000,0.000000,-0.050000,-0.004804,0.007391,-0.050222,-0.100885,-0.449408,-0.050443,0.000000,
354170216,0.443122,16.607303,1,-0.487854,0.009277,-0.007690,-0.872864,0.030000,-0.020000,-0.060000,0.001841,0.034676,-0.060781,0.209268,-0.072518,-0.060667,0.000000,
354182813,-0.111443,16.616590,1,-0.487854,0.009277,-0.007690,-0.872864,0.040000,-0.020000,-0.060000,-0.003398,0.043191,-0.061018,0.022406,-0.292524,-0.061014,0.000000,
354190985,0.168403,16.602660,1,-0.487854,0.009277,-0.007690,-0.872864,0.030000,0.000000,-0.050000,-0.015282,0.024422,-0.050696,0.104698,-0.172916,-0.050810,0.000000,
354200124,-0.385628,16.602660,1,-0.487854,0.009277,-0.007690,-0.872864,0.030000,0.010000,-0.070000,-0.023627,0.018733,-0.070647,-0.180167,-0.515653,-0.070428,0.000000,
354212771,-0.478402,16.607303,1,-0.487854,0.009277,-0.007690,-0.872864,0.020000,-0.010000,-0.040000,-0.001612,0.021371,-0.040506,-0.359630,-0.721008,-0.040836,0.000000,
354220964,0.259117,16.607303,1,-0.487854,0.009277,-0.007690,-0.872864,0.040000,0.000000,-0.060000,-0.020434,0.032712,-0.060931,-0.006552,-0.208705,-0.060709,0.000000,
354230095,-0.018166,16.611947,1,-0.487854,0.009277,-0.007690,-0.872864,0.030000,0.020000,-0.050000,-0.032318,0.013943,-0.050609,-0.015171,-0.217337,-0.050720,0.000000,
354242677,0.443122,16.607303,1,-0.487854,0.009277,-0.007690,-0.872864,0.020000,0.000000,-0.040000,-0.010130,0.016131,-0.040462,0.247864,0.098909,-0.040575,0.000000,
354250864,-0.018166,16.611947,1,-0.487854,0.009277,-0.007690,-0.872864,0.030000,-0.020000,-0.060000,0.001841,0.034676,-0.060781,0.094323,-0.122627,-0.060558,0.000000,
354260113,0.166343,16.611947,1,-0.487854,0.009277,-0.007690,-0.872864,0.020000,0.000000,-0.040000,-0.010130,0.016131,-0.040462,0.134811,-0.072156,-0.040684,0.000000,
354272686,-0.202157,16.611947,1,-0.487854,0.009277,-0.007690,-0.872864,0.040000,-0.020000,-0.050000,-0.003485,0.043416,-0.051021,-0.061576,-0.308439,-0.050907,0.000000,
354280880,0.443122,16.607303,1,-0.487854,0.009277,-0.007690,-0.872864,0.040000,-0.010000,-0.050000,-0.012003,0.038176,-0.050977,0.228776,0.113378,-0.050976,0.000000,
354290016,-0.478402,16.607303,1,-0.487854,0.009277,-0.007690,-0.872864,0.030000,-0.020000,-0.050000,0.001754,0.034901,-0.050784,-0.178908,-0.389476,-0.050786,0.000000,
354302590,0.443122,16.607303,1,-0.487854,0.009277,-0.007690,-0.872864,0.050000,0.000000,-0.050000,-0.025760,0.041452,-0.051170,0.177001,0.044238,-0.051166,0.000000,
354310780,0.075111,16.607303,1,-0.487854,0.009277,-0.007690,-0.872864,0.050000,0.000000,-0.050000,-0.025760,0.041452,-0.051170,0.118232,-0.041646,-0.051170,0.000000,
354319911,-0.018166,16.611947,1,-0.487854,0.009277,-0.007690,-0.872864,0.020000,-0.010000,-0.040000,-0.001612,0.021371,-0.040506,0.039014,-0.139244,-0.040624,0.000000,
354329520,-0.109398,16.607303,1,-0.487854,0.009277,-0.007690,-0.872864,0.040000,-0.010000,-0.030000,-0.012177,0.038626,-0.030983,-0.048111,-0.243565,-0.031089,0.000000,
354342331,0.166343,16.611947,1,-0.487854,0.009277,-0.007690,-0.872864,0.010000,-0.020000,-0.060000,0.012319,0.017646,-0.060307,0.073297,-0.090467,-0.059985,0.000000,
354350752,0.073066,16.616590,1,-0.487854,0.009277,-0.007690,-0.872864,0.030000,-0.020000,-0.040000,0.001667,0.035126,-0.040787,0.072399,-0.091008,-0.040998,0.000000,
354359882,-0.018166,16.611947,1,-0.487854,0.009277,-0.007690,-0.872864,0.040000,-0.020000,-0.030000,-0.003659,0.043865,-0.031027,0.019179,-0.157764,-0.031137,0.000000,
354372456,0.166343,16.611947,1,-0.487854,0.009277,-0.007690,-0.872864,0.040000,-0.020000,-0.050000,-0.003485,0.043416,-0.051021,0.102601,-0.053630,-0.050802,0.000000,
354380627,0.443122,16.607303,1,-0.487854,0.009277,-0.007690,-0.872864,0.030000,0.000000,-0.040000,-0.015369,0.024646,-0.040699,0.299840,0.235389,-0.040811,0.000000,
354389877,0.350349,16.611947,1,-0.487854,0.009277,-0.007690,-0.872864,0.040000,-0.010000,-0.060000,-0.011916,0.037952,-0.060974,0.331218,0.271188,-0.060752,0.000000,
354402469,0.350349,16.611947,1,-0.487854,0.009277,-0.007690,-0.872864,0.020000,-0.030000,-0.080000,0.015771,0.030951,-0.080582,0.345730,0.283806,-0.080363,0.000000,
354410662,0.443122,16.607303,1,-0.487854,0.009277,-0.007690,-0.872864,0.030000,-0.010000,-0.030000,-0.006938,0.030111,-0.030746,0.404598,0.366594,-0.031293,0.000000,
354419805,-0.109398,16.607303,1,-0.487854,0.009277,-0.007690,-0.872864,0.040000,-0.010000,-0.030000,-0.012177,0.038626,-0.030983,0.110769,-0.005440,-0.030986,0.000000,
354432380,-0.202157,16.611947,1,-0.487854,0.009277,-0.007690,-0.872864,0.030000,0.000000,-0.050000,-0.015282,0.024422,-0.050696,-0.070894,-0.228468,-0.050479,0.000000,
354440569,0.443122,16.607303,1,-0.487854,0.009277,-0.007690,-0.872864,0.050000,0.010000,-0.060000,-0.034192,0.035988,-0.061124,0.225652,0.209429,-0.061007,0.000000,
354449764,-0.019707,16.621234,1,-0.487854,0.009277,-0.007690,-0.872864,0.040000,0.000000,-0.050000,-0.020521,0.032937,-0.050933,0.085703,0.031230,-0.051044,0.000000,
354462344,0.350349,16.611947,1,-0.487854,0.009277,-0.007690,-0.872864,0.010000,-0.010000,-0.060000,0.003801,0.012406,-0.060263,0.239690,0.219607,-0.060162,0.000000,
354470546,0.352912,16.602660,1,-0.487854,0.009277,-0.007690,-0.872864,0.030000,-0.020000,-0.050000,0.001754,0.034901,-0.050784,0.307231,0.316156,-0.050887,0.000000,
354479706,0.259117,16.607303,1,-0.487854,0.009277,-0.007690,-0.872864,0.020000,-0.020000,-0.070000,0.007166,0.025936,-0.070541,0.282302,0.280509,-0.070325,0.000000,
354492311,0.166343,16.611947,1,-0.487854,0.009277,-0.007690,-0.872864,0.000000,0.000000,-0.060000,0.000522,-0.001349,-0.059983,0.218528,0.196772,-0.060097,0.000000,
354500480,-0.293893,16.607303,1,-0.487854,0.009277,-0.007690,-0.872864,0.010000,-0.010000,-0.060000,0.003801,0.012406,-0.060263,-0.077413,-0.244093,-0.060261,0.000000,
354509755,0.443122,16.607303,1,-0.487854,0.009277,-0.007690,-0.872864,0.020000,-0.010000,-0.060000,-0.001438,0.020921,-0.060500,0.221368,0.134428,-0.060498,0.000000,
354522335,0.166343,16.611947,1,-0.487854,0.009277,-0.007690,-0.872864,0.050000,-0.020000,-0.070000,-0.008551,0.051482,-0.071252,0.191108,0.093807,-0.071134,0.000000,
354530535,-0.111443,16.616590,1,-0.487854,0.009277,-0.007690,-0.872864,0.070000,0.000000,-0.040000,-0.036325,0.058707,-0.041647,0.016169,-0.167422,-0.041972,0.000000,
354539673,-0.109398,16.607303,1,-0.487854,0.009277,-0.007690,-0.872864,0.030000,-0.010000,-0.070000,-0.006591,0.029212,-0.070734,-0.057981,-0.259939,-0.070417,0.000000,
354552266,0.627632,16.607303,1,-0.487854,0.009277,-0.007690,-0.872864,0.030000,-0.010000,-0.070000,-0.006591,0.029212,-0.070734,0.336713,0.231685,-0.070731,0.000000,
354560457,0.350349,16.611947,1,-0.487854,0.009277,-0.007690,-0.872864,0.030000,0.000000,-0.040000,-0.015369,0.024646,-0.040699,0.346528,0.243116,-0.041030,0.000000,
354569589,0.812156,16.607303,1,-0.487854,0.009277,-0.007690,-0.872864,0.040000,-0.010000,-0.050000,-0.012003,0.038176,-0.050977,0.618022,0.583600,-0.050868,0.000000,
354582168,0.257575,16.616590,1,-0.487854,0.009277,-0.007690,-0.872864,0.010000,0.030000,-0.050000,-0.030358,-0.008327,-0.050091,0.416132,0.323711,-0.050100,0.000000,
354590364,0.166343,16.611947,1,-0.487854,0.009277,-0.007690,-0.872864,0.040000,-0.020000,-0.040000,-0.003572,0.043641,-0.041024,0.273720,0.107641,-0.041124,0.000000,
354599616,0.073066,16.616590,1,-0.487854,0.009277,-0.007690,-0.872864,0.030000,0.000000,-0.050000,-0.015282,0.024422,-0.050696,0.158652,-0.040044,-0.050591,0.000000,
354612162,0.443122,16.607303,1,-0.487854,0.009277,-0.007690,-0.872864,0.010000,0.010000,-0.030000,-0.013496,0.002601,-0.030185,0.323314,0.166093,-0.030409,0.000000,
354620355,0.166343,16.611947,1,-0.487854,0.009277,-0.007690,-0.872864,0.040000,-0.020000,-0.050000,-0.003485,0.043416,-0.051021,0.233505,0.029724,-0.050794,0.000000,
354629504,-0.019707,16.621234,1,-0.487854,0.009277,-0.007690,-0.872864,0.030000,0.000000,-0.050000,-0.015282,0.024422,-0.050696,0.087325,-0.156912,-0.050698,0.000000,
354642086,-0.295952,16.616590,1,-0.487854,0.009277,-0.007690,-0.872864,0.040000,-0.010000,-0.060000,-0.011916,0.037952,-0.060974,-0.137164,-0.434739,-0.060861,0.000000,
354650262,0.166343,16.611947,1,-0.487854,0.009277,-0.007690,-0.872864,0.020000,-0.010000,-0.050000,-0.001525,0.021146,-0.050503,0.035556,-0.171890,-0.050617,0.000000,
354659513,0.441062,16.616590,1,-0.487854,0.009277,-0.007690,-0.872864,0.030000,0.010000,-0.030000,-0.023974,0.019632,-0.030659,0.268528,0.126167,-0.030878,0.000000,
354672088,-0.109398,16.607303,1,-0.487854,0.009277,-0.007690,-0.872864,0.050000,-0.020000,-0.030000,-0.008898,0.052381,-0.031264,0.050660,-0.149456,-0.031259,0.000000,
354680294,-0.111443,16.616590,1,-0.487854,0.009277,-0.007690,-0.872864,0.040000,0.010000,-0.050000,-0.029039,0.027697,-0.050890,-0.044731,-0.290942,-0.050673,0.000000,
354689437,0.350349,16.611947,1,-0.487854,0.009277,-0.007690,-0.872864,0.040000,0.000000,-0.050000,-0.020521,0.032937,-0.050933,0.181133,0.000467,-0.050931,0.000000,
354702006,0.073066,16.616590,1,-0.487854,0.009277,-0.007690,-0.872864,0.060000,0.000000,-0.050000,-0.030999,0.049967,-0.051407,0.118393,-0.078572,-0.051402,0.000000,
354710198,0.441062,16.616590,1,-0.487854,0.009277,-0.007690,-0.872864,0.010000,0.020000,-0.060000,-0.021754,-0.003313,-0.060132,0.305168,0.201543,-0.060036,0.000000,
354719376,0.073066,16.616590,1,-0.487854,0.009277,-0.007690,-0.872864,0.040000,-0.010000,-0.050000,-0.012003,0.038176,-0.050977,0.172758,0.029671,-0.051077,0.000000,
354728959,-0.202157,16.611947,1,-0.487854,0.009277,-0.007690,-0.872864,0.020000,0.000000,-0.050000,-0.010043,0.015906,-0.050459,-0.043833,-0.243548,-0.050466,0.000000,
354741787,0.073066,16.616590,1,-0.487854,0.009277,-0.007690,-0.872864,0.050000,-0.010000,-0.060000,-0.017155,0.046467,-0.061211,0.020978,-0.157646,-0.061093,0.000000,
354750168,-0.297997,16.625877,1,-0.487854,0.009277,-0.007690,-0.872864,0.040000,-0.010000,-0.050000,-0.012003,0.038176,-0.050977,-0.165826,-0.441747,-0.051089,0.000000,
354759312,-0.111443,16.616590,1,-0.487854,0.009277,-0.007690,-0.872864,0.030000,-0.010000,-0.050000,-0.006764,0.029661,-0.050740,-0.138390,-0.401103,-0.050744,0.000000,
354771967,0.073066,16.616590,1,-0.487854,0.009277,-0.007690,-0.872864,0.040000,-0.010000,-0.060000,-0.011916,0.037952,-0.060974,-0.020643,-0.246653,-0.060862,0.000000,
354780158,0.259117,16.607303,1,-0.487854,0.009277,-0.007690,-0.872864,0.040000,0.000000,-0.050000,-0.020521,0.032937,-0.050933,0.139889,-0.001237,-0.051043,0.000000,
354789298,-0.111443,16.616590,1,-0.487854,0.009277,-0.007690,-0.872864,0.030000,-0.010000,-0.060000,-0.006677,0.029436,-0.060737,-0.005523,-0.188606,-0.060630,0.000000,
354809562,-0.019707,16.621234,1,-0.487854,0.009277,-0.007690,-0.872864,0.050000,-0.020000,-0.040000,-0.008811,0.052156,-0.041261,-0.017669,-0.199783,-0.041474,0.000000,
354819066,-0.202157,16.611947,1,-0.487854,0.009277,-0.007690,-0.872864,0.040000,-0.010000,-0.050000,-0.012003,0.038176,-0.050977,-0.128768,-0.421399,-0.050872,0.000000,
354828766,-0.109398,16.607303,1,-0.487854,0.009277,-0.007690,-0.872864,0.020000,-0.010000,-0.060000,-0.001438,0.020921,-0.060500,-0.121549,-0.404048,-0.060394,0.000000,
354841584,0.166343,16.611947,1,-0.487854,0.009277,-0.007690,-0.872864,0.040000,0.000000,-0.060000,-0.020434,0.032712,-0.060931,0.041266,-0.168729,-0.060925,0.000000,
354849982,0.075111,16.607303,1,-0.487854,0.009277,-0.007690,-0.872864,0.050000,-0.010000,-0.050000,-0.017242,0.046692,-0.051214,0.059551,-0.138441,-0.051321,0.000000,
354859125,0.166343,16.611947,1,-0.487854,0.009277,-0.007690,-0.872864,0.030000,0.010000,-0.050000,-0.023800,0.019182,-0.050653,0.120109,-0.058278,-0.050660,0.000000,
354871718,0.166343,16.611947,1,-0.487854,0.009277,-0.007690,-0.872864,0.040000,-0.010000,-0.060000,-0.011916,0.037952,-0.060974,0.146217,-0.025591,-0.060861,0.000000,
354879911,-0.387688,16.611947,1,-0.487854,0.009277,-0.007690,-0.872864,0.060000,-0.010000,-0.050000,-0.022481,0.055207,-0.051451,-0.164040,-0.484223,-0.051555,0.000000,
354889152,-0.480446,16.616590,1,-0.487854,0.009277,-0.007690,-0.872864,0.020000,-0.010000,-0.040000,-0.001612,0.021371,-0.040506,-0.351497,-0.714375,-0.040628,0.000000,
354901735,-0.480446,16.616590,1,-0.487854,0.009277,-0.007690,-0.872864,0.020000,-0.010000,-0.040000,-0.001612,0.021371,-0.040506,-0.435339,-0.807310,-0.040507,0.000000,
354909939,0.350349,16.611947,1,-0.487854,0.009277,-0.007690,-0.872864,0.030000,0.000000,-0.060000,-0.015195,0.024197,-0.060694,0.014251,-0.134882,-0.060471,0.000000,
354919081,0.259117,16.607303,1,-0.487854,0.009277,-0.007690,-0.872864,0.020000,-0.010000,-0.060000,-0.001438,0.020921,-0.060500,0.154606,0.042573,-0.060500,0.000000,
354931653,0.443122,16.607303,1,-0.487854,0.009277,-0.007690,-0.872864,0.030000,-0.020000,-0.050000,0.001754,0.034901,-0.050784,0.322581,0.247918,-0.050891,0.000000,
354939849,0.166343,16.611947,1,-0.487854,0.009277,-0.007690,-0.872864,0.050000,-0.010000,-0.060000,-0.017155,0.046467,-0.061211,0.233895,0.113610,-0.061098,0.000000,
354949100,0.441062,16.616590,1,-0.487854,0.009277,-0.007690,-0.872864,0.040000,-0.010000,-0.060000,-0.011916,0.037952,-0.060974,0.354752,0.263787,-0.060976,0.000000,
354961695,0.719383,16.611947,1,-0.487854,0.009277,-0.007690,-0.872864,0.050000,-0.010000,-0.070000,-0.017069,0.046242,-0.071208,0.569748,0.525447,-0.071096,0.000000,
354969867,0.443122,16.607303,1,-0.487854,0.009277,-0.007690,-0.872864,0.020000,0.000000,-0.060000,-0.009956,0.015682,-0.060457,0.500507,0.415882,-0.060574,0.000000,
354978994,0.075111,16.607303,1,-0.487854,0.009277,-0.007690,-0.872864,0.040000,-0.010000,-0.040000,-0.012090,0.038401,-0.040980,0.258311,0.105161,-0.041196,0.000000,
354991646,-0.111443,16.616590,1,-0.487854,0.009277,-0.007690,-0.872864,0.010000,-0.020000,-0.040000,0.012145,0.018095,-0.040313,0.045010,-0.160270,-0.040323,0.000000,
354999855,-0.293893,16.607303,1,-0.487854,0.009277,-0.007690,-0.872864,0.020000,-0.020000,-0.050000,0.006993,0.026386,-0.050547,-0.153137,-0.453395,-0.050434,0.000000,
355008998,-0.480446,16.616590,1,-0.487854,0.009277,-0.007690,-0.872864,0.020000,0.020000,-0.050000,-0.027079,0.005427,-0.050372,-0.346581,-0.693769,-0.050373,0.000000,
355021569,0.257575,16.616590,1,-0.487854,0.009277,-0.007690,-0.872864,0.050000,-0.020000,-0.040000,-0.008811,0.052156,-0.041261,-0.004608,-0.259579,-0.041361,0.000000,
355029761,-0.018166,16.611947,1,-0.487854,0.009277,-0.007690,-0.872864,0.020000,0.000000,-0.040000,-0.010130,0.016131,-0.040462,-0.014610,-0.271607,-0.040472,0.000000,
355038992,0.257575,16.616590,1,-0.487854,0.009277,-0.007690,-0.872864,0.030000,0.000000,-0.030000,-0.015456,0.024871,-0.030702,0.140309,-0.072476,-0.030810,0.000000,
355051591,-0.204201,16.621234,1,-0.487854,0.009277,-0.007690,-0.872864,0.020000,-0.020000,-0.050000,0.006993,0.026386,-0.050547,-0.060633,-0.322576,-0.050329,0.000000,
355059795,0.073066,16.616590,1,-0.487854,0.009277,-0.007690,-0.872864,0.050000,-0.020000,-0.070000,-0.008551,0.051482,-0.071252,0.014375,-0.207253,-0.071022,0.000000,
355068937,0.073066,16.616590,1,-0.487854,0.009277,-0.007690,-0.872864,0.020000,0.000000,-0.060000,-0.009956,0.015682,-0.060457,0.046424,-0.164631,-0.060573,0.000000,
355081506,0.350349,16.611947,1,-0.487854,0.009277,-0.007690,-0.872864,0.010000,-0.020000,-0.070000,0.012405,0.017421,-0.070304,0.220785,0.053989,-0.070197,0.000000,
355089700,0.164298,16.621234,1,-0.487854,0.009277,-0.007690,-0.872864,0.030000,-0.010000,-0.030000,-0.006938,0.030111,-0.030746,0.188420,0.004827,-0.031181,0.000000,
355098851,-0.018166,16.611947,1,-0.487854,0.009277,-0.007690,-0.872864,0.030000,0.030000,-0.030000,-0.041010,0.009153,-0.030571,0.068979,-0.147389,-0.030578,0.000000,
355111435,0.625587,16.616590,1,-0.487854,0.009277,-0.007690,-0.872864,0.020000,-0.040000,-0.070000,0.024203,0.036415,-0.070629,0.390260,0.254336,-0.070187,0.000000,
355119628,-0.204201,16.621234,1,-0.487854,0.009277,-0.007690,-0.872864,0.040000,0.000000,-0.050000,-0.020521,0.032937,-0.050933,0.047066,-0.262100,-0.051146,0.000000,
355128802,-0.666482,16.625877,1,-0.487854,0.009277,-0.007690,-0.872864,0.040000,0.020000,-0.060000,-0.037471,0.022233,-0.060843,-0.368068,-0.788520,-0.060736,0.000000,
355141375,-0.019707,16.621234,1,-0.487854,0.009277,-0.007690,-0.872864,0.030000,-0.010000,-0.050000,-0.006764,0.029661,-0.050740,-0.175728,-0.536362,-0.050850,0.000000,
355149566,-0.204201,16.621234,1,-0.487854,0.009277,-0.007690,-0.872864,0.030000,0.010000,-0.040000,-0.023887,0.019407,-0.040656,-0.196661,-0.561451,-0.040768,0.000000,
355158710,0.534858,16.611947,1,-0.487854,0.009277,-0.007690,-0.872864,0.010000,-0.020000,-0.060000,0.012319,0.017646,-0.060307,0.221321,-0.022096,-0.060092,0.000000,
355171277,0.440040,16.625877,1,-0.487854,0.009277,-0.007690,-0.872864,0.000000,-0.020000,-0.060000,0.017558,0.009130,-0.060070,0.348023,0.135821,-0.060070,0.000000,
355179488,-0.019707,16.621234,1,-0.487854,0.009277,-0.007690,-0.872864,0.020000,-0.010000,-0.040000,-0.001612,0.021371,-0.040506,0.135536,-0.184432,-0.040722,0.000000,
355188738,0.532813,16.621234,1,-0.487854,0.009277,-0.007690,-0.872864,0.030000,0.010000,-0.050000,-0.023800,0.019182,-0.050653,0.363661,0.108976,-0.050543,0.000000,
355201337,0.255531,16.625877,1,-0.487854,0.009277,-0.007690,-0.872864,0.040000,0.030000,-0.060000,-0.045989,0.016993,-0.060799,0.302231,0.029123,-0.060686,0.000000,
355209546,-0.018166,16.611947,1,-0.487854,0.009277,-0.007690,-0.872864,0.080000,0.020000,-0.040000,-0.058600,0.056743,-0.041797,0.116328,-0.251421,-0.042005,0.000000,
355218689,-0.019707,16.621234,1,-0.487854,0.009277,-0.007690,-0.872864,0.050000,0.000000,-0.050000,-0.025760,0.041452,-0.051170,0.035333,-0.352821,-0.051069,0.000000,
355228285,0.071021,16.625877,1,-0.487854,0.009277,-0.007690,-0.872864,0.030000,-0.020000,-0.030000,0.001580,0.035350,-0.030790,0.052591,-0.327132,-0.031013,0.000000,
355241104,-0.204201,16.621234,1,-0.487854,0.009277,-0.007690,-0.872864,0.010000,-0.030000,-0.040000,0.020663,0.023335,-0.040357,-0.100858,-0.518474,-0.040254,0.000000,
355249305,-0.018166,16.611947,1,-0.487854,0.009277,-0.007690,-0.872864,0.010000,-0.030000,-0.050000,0.020750,0.023110,-0.050354,-0.057039,-0.445248,-0.050242,0.000000,
355258576,-0.113488,16.625877,1,-0.487854,0.009277,-0.007690,-0.872864,0.030000,0.020000,-0.070000,-0.032145,0.013493,-0.070603,-0.093839,-0.488190,-0.070379,0.000000,
355271209,-0.111443,16.616590,1,-0.487854,0.009277,-0.007690,-0.872864,0.040000,0.030000,-0.080000,-0.045815,0.016544,-0.080794,-0.110240,-0.502194,-0.080679,0.000000,
355279394,0.073066,16.616590,1,-0.487854,0.009277,-0.007690,-0.872864,0.040000,-0.010000,-0.050000,-0.012003,0.038176,-0.050977,-0.007839,-0.341268,-0.051304,0.000000,
355288530,-0.297997,16.625877,1,-0.487854,0.009277,-0.007690,-0.872864,0.040000,-0.010000,-0.050000,-0.012003,0.038176,-0.050977,-0.178822,-0.557685,-0.050981,0.000000,
355301133,0.257575,16.616590,1,-0.487854,0.009277,-0.007690,-0.872864,0.010000,-0.040000,-0.060000,0.029355,0.028125,-0.060395,0.067560,-0.239955,-0.060291,0.000000,
355309307,0.164298,16.621234,1,-0.487854,0.009277,-0.007690,-0.872864,0.000000,-0.040000,-0.060000,0.034594,0.019610,-0.060158,0.121797,-0.155691,-0.060159,0.000000,
355318435,0.257575,16.616590,1,-0.487854,0.009277,-0.007690,-0.872864,0.040000,-0.010000,-0.040000,-0.012090,0.038401,-0.040980,0.198918,-0.055259,-0.041191,0.000000,
355331056,0.255531,16.625877,1,-0.487854,0.009277,-0.007690,-0.872864,0.070000,0.040000,-0.050000,-0.070311,0.037524,-0.051469,0.231091,-0.014630,-0.051356,0.000000,
355339227,-0.204201,16.621234,1,-0.487854,0.009277,-0.007690,-0.872864,0.040000,0.020000,-0.060000,-0.037471,0.022233,-0.060843,-0.021921,-0.396973,-0.060739,0.000000,
355348369,-0.113488,16.625877,1,-0.487854,0.009277,-0.007690,-0.872864,0.020000,-0.020000,-0.050000,0.006993,0.026386,-0.050547,-0.078523,-0.465480,-0.050659,0.000000,
355360960,-0.484032,16.635164,1,-0.487854,0.009277,-0.007690,-0.872864,0.010000,-0.010000,-0.050000,0.003714,0.012631,-0.050266,-0.319865,-0.762308,-0.050271,0.000000,
355369157,0.071021,16.625877,1,-0.487854,0.009277,-0.007690,-0.872864,0.020000,-0.030000,-0.060000,0.015598,0.031400,-0.060588,-0.099020,-0.420007,-0.060474,0.000000,
355378300,-0.113488,16.625877,1,-0.487854,0.009277,-0.007690,-0.872864,0.050000,-0.030000,-0.050000,-0.000206,0.057171,-0.051302,-0.111232,-0.431248,-0.051403,0.000000,
355390920,-0.021752,16.630521,1,-0.487854,0.009277,-0.007690,-0.872864,0.030000,0.020000,-0.070000,-0.032145,0.013493,-0.070603,-0.064716,-0.366691,-0.070392,0.000000,
355399094,-0.111443,16.616590,1,-0.487854,0.009277,-0.007690,-0.872864,0.070000,0.030000,-0.060000,-0.061706,0.042539,-0.061510,-0.094864,-0.408272,-0.061608,0.000000,
355408256,0.071021,16.625877,1,-0.487854,0.009277,-0.007690,-0.872864,0.030000,0.000000,-0.050000,-0.015282,0.024422,-0.050696,-0.002637,-0.285205,-0.050817,0.000000,
355420858,0.440040,16.625877,1,-0.487854,0.009277,-0.007690,-0.872864,0.020000,0.000000,-0.050000,-0.010043,0.015906,-0.050459,0.250852,0.038483,-0.050463,0.000000,
355429037,-0.204201,16.621234,1,-0.487854,0.009277,-0.007690,-0.872864,0.040000,-0.020000,-0.040000,-0.003572,0.043641,-0.041024,-0.013224,-0.361961,-0.041128,0.000000,
355438288,-0.019707,16.621234,1,-0.487854,0.009277,-0.007690,-0.872864,0.010000,-0.020000,-0.020000,0.011971,0.018545,-0.020319,-0.020325,-0.366981,-0.020548,0.000000,
355450858,0.532813,16.621234,1,-0.487854,0.009277,-0.007690,-0.872864,0.010000,-0.010000,-0.050000,0.003714,0.012631,-0.050266,0.296347,0.040099,-0.049939,0.000000,
355459048,0.534858,16.611947,1,-0.487854,0.009277,-0.007690,-0.872864,0.030000,0.020000,-0.040000,-0.032405,0.014167,-0.040612,0.435256,0.249659,-0.040715,0.000000,
355468180,0.071021,16.625877,1,-0.487854,0.009277,-0.007690,-0.872864,0.050000,0.020000,-0.040000,-0.042883,0.031198,-0.041086,0.226810,-0.022515,-0.041082,0.000000,
355480760,0.164298,16.621234,1,-0.487854,0.009277,-0.007690,-0.872864,0.050000,-0.010000,-0.050000,-0.017242,0.046692,-0.051214,0.190221,-0.068947,-0.051103,0.000000,
355488931,0.257575,16.616590,1,-0.487854,0.009277,-0.007690,-0.872864,0.030000,-0.020000,-0.080000,0.002014,0.034226,-0.080775,0.228786,-0.010410,-0.080448,0.000000,
355498183,0.071021,16.625877,1,-0.487854,0.009277,-0.007690,-0.872864,0.000000,-0.020000,-0.060000,0.017558,0.009130,-0.060070,0.137405,-0.128529,-0.060295,0.000000,
355510775,0.164298,16.621234,1,-0.487854,0.009277,-0.007690,-0.872864,0.040000,0.000000,-0.070000,-0.020348,0.032487,-0.070928,0.151402,-0.109584,-0.070810,0.000000,
355518968,-0.388711,16.621234,1,-0.487854,0.009277,-0.007690,-0.872864,0.050000,0.010000,-0.020000,-0.034539,0.036887,-0.021135,-0.163341,-0.586061,-0.021683,0.000000,
355528100,0.164298,16.621234,1,-0.487854,0.009277,-0.007690,-0.872864,0.040000,-0.010000,-0.040000,-0.012090,0.038401,-0.040980,0.020866,-0.341511,-0.040767,0.000000,
355540713,-0.113488,16.625877,1,-0.487854,0.009277,-0.007690,-0.872864,0.030000,0.000000,-0.040000,-0.015369,0.024646,-0.040699,-0.061474,-0.440568,-0.040700,0.000000,
355548903,0.348304,16.621234,1,-0.487854,0.009277,-0.007690,-0.872864,0.030000,-0.030000,-0.040000,0.010185,0.040365,-0.040831,0.173019,-0.079745,-0.040829,0.000000,
355558155,0.071021,16.625877,1,-0.487854,0.009277,-0.007690,-0.872864,0.020000,-0.020000,-0.080000,0.007253,0.025711,-0.080538,0.113257,-0.156722,-0.080101,0.000000,
355570744,0.346244,16.630521,1,-0.487854,0.009277,-0.007690,-0.872864,0.040000,-0.010000,-0.050000,-0.012003,0.038176,-0.050977,0.246622,0.014793,-0.051298,0.000000,
355578917,0.348304,16.621234,1,-0.487854,0.009277,-0.007690,-0.872864,0.020000,0.020000,-0.050000,-0.027079,0.005427,-0.050372,0.305826,0.104141,-0.050382,0.000000,
355588060,0.532813,16.621234,1,-0.487854,0.009277,-0.007690,-0.872864,0.050000,0.020000,-0.040000,-0.042883,0.031198,-0.041086,0.438103,0.273399,-0.041188,0.000000,
355600677,-0.204201,16.621234,1,-0.487854,0.009277,-0.007690,-0.872864,0.040000,0.000000,-0.060000,-0.020434,0.032712,-0.060931,0.068503,-0.198945,-0.060713,0.000000,
355608845,-0.021752,16.630521,1,-0.487854,0.009277,-0.007690,-0.872864,0.040000,-0.020000,-0.050000,-0.003485,0.043416,-0.051021,0.014434,-0.278991,-0.051128,0.000000,
355618041,0.440040,16.625877,1,-0.487854,0.009277,-0.007690,-0.872864,0.020000,-0.030000,-0.060000,0.015598,0.031400,-0.060588,0.258119,0.038416,-0.060484,0.000000,
355630659,0.441062,16.616590,1,-0.487854,0.009277,-0.007690,-0.872864,0.030000,-0.030000,-0.060000,0.010359,0.039916,-0.060825,0.364862,0.172410,-0.060821,0.000000,
355638844,0.071021,16.625877,1,-0.487854,0.009277,-0.007690,-0.872864,0.000000,-0.010000,-0.050000,0.008953,0.004116,-0.050029,0.195523,-0.087618,-0.050148,0.000000,
355648013,0.348304,16.621234,1,-0.487854,0.009277,-0.007690,-0.872864,0.060000,0.000000,-0.050000,-0.030999,0.049967,-0.051407,0.283117,0.026266,-0.051394,0.000000,
355657606,-0.575265,16.630521,1,-0.487854,0.009277,-0.007690,-0.872864,0.050000,0.010000,-0.030000,-0.034452,0.036662,-0.031133,-0.213304,-0.605929,-0.031356,0.000000,
355670465,-0.297997,16.625877,1,-0.487854,0.009277,-0.007690,-0.872864,0.030000,0.000000,-0.060000,-0.015195,0.024197,-0.060694,-0.270341,-0.670280,-0.060370,0.000000,
355678860,-0.113488,16.625877,1,-0.487854,0.009277,-0.007690,-0.872864,0.040000,-0.020000,-0.070000,-0.003312,0.042966,-0.071015,-0.184727,-0.529577,-0.070898,0.000000,
355688001,-0.300042,16.635164,1,-0.487854,0.009277,-0.007690,-0.872864,0.030000,-0.030000,-0.040000,0.010185,0.040365,-0.040831,-0.256335,-0.618213,-0.041162,0.000000,
355700547,0.255531,16.625877,1,-0.487854,0.009277,-0.007690,-0.872864,0.010000,-0.010000,-0.070000,0.003887,0.012181,-0.070260,0.033271,-0.239174,-0.069940,0.000000,
355708739,-0.113488,16.625877,1,-0.487854,0.009277,-0.007690,-0.872864,0.050000,0.000000,-0.040000,-0.025847,0.041677,-0.041173,-0.053969,-0.369112,-0.041490,0.000000,
355717988,-0.113488,16.625877,1,-0.487854,0.009277,-0.007690,-0.872864,0.050000,0.000000,-0.060000,-0.025674,0.041227,-0.061168,-0.091827,-0.414250,-0.060951,0.000000,
355730562,0.071021,16.625877,1,-0.487854,0.009277,-0.007690,-0.872864,0.010000,0.000000,-0.040000,-0.004891,0.007616,-0.040225,-0.002439,-0.294225,-0.040454,0.000000,
355738732,0.532813,16.621234,1,-0.487854,0.009277,-0.007690,-0.872864,0.020000,0.000000,-0.060000,-0.009956,0.015682,-0.060457,0.306177,0.178208,-0.060236,0.000000,
355747961,0.164298,16.621234,1,-0.487854,0.009277,-0.007690,-0.872864,0.020000,-0.020000,-0.050000,0.006993,0.026386,-0.050547,0.225723,0.071593,-0.050654,0.000000,
355760524,-0.021752,16.630521,1,-0.487854,0.009277,-0.007690,-0.872864,0.040000,-0.010000,-0.060000,-0.011916,0.037952,-0.060974,0.082866,-0.112067,-0.060861,0.000000,
355768692,0.073066,16.616590,1,-0.487854,0.009277,-0.007690,-0.872864,0.060000,-0.020000,-0.060000,-0.013876,0.060221,-0.061492,0.076254,-0.121220,-0.061485,0.000000,
355777961,-0.021752,16.630521,1,-0.487854,0.009277,-0.007690,-0.872864,0.030000,-0.010000,-0.040000,-0.006851,0.029886,-0.040743,0.018417,-0.194891,-0.040972,0.000000,
355798278,0.440040,16.625877,1,-0.487854,0.009277,-0.007690,-0.872864,0.020000,-0.020000,-0.050000,0.006993,0.026386,-0.050547,0.261797,0.116416,-0.050441,0.000000,
355807725,-0.019707,16.621234,1,-0.487854,0.009277,-0.007690,-0.872864,0.020000,0.010000,-0.050000,-0.018561,0.010667,-0.050416,0.096185,-0.225856,-0.050416,0.000000,
355817440,-0.111443,16.616590,1,-0.487854,0.009277,-0.007690,-0.872864,0.030000,-0.020000,-0.050000,0.001754,0.034901,-0.050784,-0.027269,-0.420250,-0.050780,0.000000,
355831460,0.166343,16.611947,1,-0.487854,0.009277,-0.007690,-0.872864,0.000000,0.010000,-0.050000,-0.008083,-0.006363,-0.049942,0.080041,-0.260681,-0.049951,0.000000,
355839194,0.259117,16.607303,1,-0.487854,0.009277,-0.007690,-0.872864,0.000000,0.010000,-0.050000,-0.008083,-0.006363,-0.049942,0.182438,-0.088043,-0.049942,0.000000,
355848104,0.259117,16.607303,1,-0.487854,0.009277,-0.007690,-0.872864,0.050000,0.000000,-0.050000,-0.025760,0.041452,-0.051170,0.226024,-0.030739,-0.051157,0.000000,
355860578,-0.204201,16.621234,1,-0.487854,0.009277,-0.007690,-0.872864,0.020000,0.000000,-0.020000,-0.010304,0.016581,-0.020468,-0.024033,-0.338748,-0.020806,0.000000,
355868696,-0.202157,16.611947,1,-0.487854,0.009277,-0.007690,-0.872864,0.030000,0.000000,-0.030000,-0.015456,0.024871,-0.030702,-0.130180,-0.490991,-0.030593,0.000000,
355877857,0.625587,16.616590,1,-0.487854,0.009277,-0.007690,-0.872864,0.040000,0.000000,-0.040000,-0.020608,0.033162,-0.040936,0.302263,0.055295,-0.040822,0.000000,
355890458,-0.575265,16.630521,1,-0.487854,0.009277,-0.007690,-0.872864,0.050000,-0.010000,-0.040000,-0.017329,0.046916,-0.041217,-0.206349,-0.572506,-0.041213,0.000000,
355898630,0.071021,16.625877,1,-0.487854,0.009277,-0.007690,-0.872864,0.030000,-0.010000,-0.060000,-0.006677,0.029436,-0.060737,-0.049968,-0.334415,-0.060522,0.000000,
355907773,-0.113488,16.625877,1,-0.487854,0.009277,-0.007690,-0.872864,0.000000,-0.010000,-0.050000,0.008953,0.004116,-0.050029,-0.089759,-0.381212,-0.050145,0.000000,
355920371,0.348304,16.621234,1,-0.487854,0.009277,-0.007690,-0.872864,0.040000,0.000000,-0.060000,-0.020434,0.032712,-0.060931,0.159707,-0.067582,-0.060812,0.000000,
355928555,-0.388711,16.621234,1,-0.487854,0.009277,-0.007690,-0.872864,0.030000,0.010000,-0.070000,-0.023627,0.018733,-0.070647,-0.159329,-0.541230,-0.070539,0.000000,
355937750,0.162757,16.630521,1,-0.487854,0.009277,-0.007690,-0.872864,0.050000,-0.020000,-0.040000,-0.008811,0.052156,-0.041261,0.021970,-0.305863,-0.041583,0.000000,
355950344,0.071021,16.625877,1,-0.487854,0.009277,-0.007690,-0.872864,0.030000,-0.020000,-0.050000,0.001754,0.034901,-0.050784,0.046591,-0.271092,-0.050683,0.000000,
355958518,-0.019707,16.621234,1,-0.487854,0.009277,-0.007690,-0.872864,0.030000,0.010000,-0.070000,-0.023627,0.018733,-0.070647,0.005868,-0.329043,-0.070427,0.000000,
355967789,0.071021,16.625877,1,-0.487854,0.009277,-0.007690,-0.872864,0.030000,-0.020000,-0.070000,0.001927,0.034451,-0.070778,0.040501,-0.281915,-0.070774,0.000000,
355980353,-0.388711,16.621234,1,-0.487854,0.009277,-0.007690,-0.872864,0.050000,-0.010000,-0.060000,-0.017155,0.046467,-0.061211,-0.212264,-0.594567,-0.061317,0.000000,
355988557,0.532813,16.621234,1,-0.487854,0.009277,-0.007690,-0.872864,0.020000,-0.010000,-0.060000,-0.001438,0.020921,-0.060500,0.215617,0.050970,-0.060509,0.000000,
355997698,-0.295952,16.616590,1,-0.487854,0.009277,-0.007690,-0.872864,0.020000,-0.020000,-0.050000,0.006993,0.026386,-0.050547,-0.079803,-0.326045,-0.050657,0.000000,
356010271,0.164298,16.621234,1,-0.487854,0.009277,-0.007690,-0.872864,0.040000,-0.010000,-0.050000,-0.012003,0.038176,-0.050977,0.057804,-0.150250,-0.050974,0.000000,
356018464,0.348304,16.621234,1,-0.487854,0.009277,-0.007690,-0.872864,0.020000,-0.020000,-0.030000,0.006819,0.026835,-0.030553,0.225294,0.101331,-0.030778,0.000000,
356027705,0.441062,16.616590,1,-0.487854,0.009277,-0.007690,-0.872864,0.050000,-0.020000,-0.040000,-0.008811,0.052156,-0.041261,0.351040,0.259797,-0.041145,0.000000,
356040341,0.071021,16.625877,1,-0.487854,0.009277,-0.007690,-0.872864,0.020000,-0.010000,-0.060000,-0.001438,0.020921,-0.060500,0.191708,0.055193,-0.060287,0.000000,
356048513,-0.113488,16.625877,1,-0.487854,0.009277,-0.007690,-0.872864,0.020000,-0.010000,-0.030000,-0.001699,0.021596,-0.030509,0.014865,-0.211380,-0.030837,0.000000,
356057655,0.073066,16.616590,1,-0.487854,0.009277,-0.007690,-0.872864,0.050000,-0.020000,-0.060000,-0.008637,0.051706,-0.061255,0.046595,-0.168976,-0.060920,0.000000,
356070246,-0.113488,16.625877,1,-0.487854,0.009277,-0.007690,-0.872864,0.020000,0.000000,-0.080000,-0.009783,0.015232,-0.080451,-0.048482,-0.286053,-0.080236,0.000000,
356078418,0.348304,16.621234,1,-0.487854,0.009277,-0.007690,-0.872864,0.040000,0.000000,-0.060000,-0.020434,0.032712,-0.060931,0.179649,0.058777,-0.061143,0.000000,
356087628,-0.206261,16.630521,1,-0.487854,0.009277,-0.007690,-0.872864,0.050000,-0.010000,-0.040000,-0.017329,0.046916,-0.041217,-0.043041,-0.226327,-0.041437,0.000000,
356100208,0.162757,16.630521,1,-0.487854,0.009277,-0.007690,-0.872864,0.020000,-0.010000,-0.060000,-0.001438,0.020921,-0.060500,0.073608,-0.077168,-0.060290,0.000000,
356108397,0.346244,16.630521,1,-0.487854,0.009277,-0.007690,-0.872864,0.030000,0.000000,-0.040000,-0.015369,0.024646,-0.040699,0.231347,0.160255,-0.040915,0.000000,
356117644,0.346244,16.630521,1,-0.487854,0.009277,-0.007690,-0.872864,0.030000,0.010000,-0.060000,-0.023714,0.018957,-0.060650,0.299296,0.244693,-0.060432,0.000000,
356127240,-0.297997,16.625877,1,-0.487854,0.009277,-0.007690,-0.872864,0.040000,0.000000,-0.050000,-0.020521,0.032937,-0.050933,-0.043928,-0.192696,-0.051038,0.000000,
356140047,-0.113488,16.625877,1,-0.487854,0.009277,-0.007690,-0.872864,0.040000,-0.020000,-0.060000,-0.003398,0.043191,-0.061018,-0.086832,-0.245243,-0.060908,0.000000,
356148440,0.071021,16.625877,1,-0.487854,0.009277,-0.007690,-0.872864,0.040000,-0.030000,-0.060000,0.005120,0.048431,-0.061062,0.002901,-0.105265,-0.061060,0.000000,
356157547,-0.021752,16.630521,1,-0.487854,0.009277,-0.007690,-0.872864,0.020000,-0.010000,-0.060000,-0.001438,0.020921,-0.060500,-0.012330,-0.124479,-0.060506,0.000000,
356170131,0.071021,16.625877,1,-0.487854,0.009277,-0.007690,-0.872864,0.040000,0.000000,-0.040000,-0.020608,0.033162,-0.040936,0.034510,-0.063879,-0.041152,0.000000,
356178321,-0.113488,16.625877,1,-0.487854,0.009277,-0.007690,-0.872864,0.040000,0.010000,-0.040000,-0.029126,0.027922,-0.040893,-0.051997,-0.193827,-0.040895,0.000000,
356187572,0.069480,16.635164,1,-0.487854,0.009277,-0.007690,-0.872864,0.050000,0.020000,-0.060000,-0.042710,0.030748,-0.061080,0.016490,-0.104212,-0.060858,0.000000,
356200146,0.346244,16.630521,1,-0.487854,0.009277,-0.007690,-0.872864,0.040000,0.000000,-0.060000,-0.020434,0.032712,-0.060931,0.206692,0.136998,-0.060930,0.000000,
356208344,0.625587,16.616590,1,-0.487854,0.009277,-0.007690,-0.872864,0.020000,-0.020000,-0.060000,0.007080,0.026161,-0.060544,0.451181,0.503489,-0.060548,0.000000,
356217514,-0.206261,16.630521,1,-0.487854,0.009277,-0.007690,-0.872864,0.020000,-0.030000,-0.060000,0.015598,0.031400,-0.060588,0.075451,0.014340,-0.060587,0.000000,
356230095,-0.113488,16.625877,1,-0.487854,0.009277,-0.007690,-0.872864,0.040000,-0.010000,-0.040000,-0.012090,0.038401,-0.040980,-0.034091,-0.124281,-0.041196,0.000000,
356238294,0.071021,16.625877,1,-0.487854,0.009277,-0.007690,-0.872864,0.040000,0.000000,-0.030000,-0.020695,0.033386,-0.030939,0.025955,-0.032482,-0.031052,0.000000,
356247541,-0.300042,16.635164,1,-0.487854,0.009277,-0.007690,-0.872864,0.050000,0.000000,-0.040000,-0.025847,0.041677,-0.041173,-0.162962,-0.275220,-0.041062,0.000000,
356260109,-0.115548,16.635164,1,-0.487854,0.009277,-0.007690,-0.872864,0.040000,0.010000,-0.060000,-0.028953,0.027473,-0.060887,-0.138888,-0.241143,-0.060668,0.000000,
356268282,-0.206261,16.630521,1,-0.487854,0.009277,-0.007690,-0.872864,0.030000,-0.010000,-0.060000,-0.006677,0.029436,-0.060737,-0.180003,-0.300743,-0.060737,0.000000,
356277528,0.346244,16.630521,1,-0.487854,0.009277,-0.007690,-0.872864,0.050000,0.010000,-0.060000,-0.034192,0.035988,-0.061124,0.121684,0.089803,-0.061120,0.000000,
356290111,-0.021752,16.630521,1,-0.487854,0.009277,-0.007690,-0.872864,0.030000,0.020000,-0.040000,-0.032405,0.014167,-0.040612,0.039501,-0.016138,-0.040838,0.000000,
356298302,-0.484032,16.635164,1,-0.487854,0.009277,-0.007690,-0.872864,0.050000,-0.020000,-0.060000,-0.008637,0.051706,-0.061255,-0.264811,-0.476518,-0.061030,0.000000,
356307444,0.255531,16.625877,1,-0.487854,0.009277,-0.007690,-0.872864,0.040000,0.010000,-0.050000,-0.029039,0.027697,-0.050890,0.031861,-0.089458,-0.051001,0.000000,
356320046,-0.206261,16.630521,1,-0.487854,0.009277,-0.007690,-0.872864,0.030000,-0.020000,-0.070000,0.001927,0.034451,-0.070778,-0.107556,-0.264505,-0.070560,0.000000,
356328240,0.160713,16.639808,1,-0.487854,0.009277,-0.007690,-0.872864,0.010000,-0.030000,-0.040000,0.020663,0.023335,-0.040357,0.046139,-0.029246,-0.040689,0.000000,
356337432,-0.021752,16.630521,1,-0.487854,0.009277,-0.007690,-0.872864,0.020000,0.010000,-0.050000,-0.018561,0.010667,-0.050416,0.006589,-0.080294,-0.050309,0.000000,
356350013,-0.115548,16.635164,1,-0.487854,0.009277,-0.007690,-0.872864,0.070000,0.000000,-0.040000,-0.036325,0.058707,-0.041647,-0.065359,-0.170472,-0.041743,0.000000,
356358187,-0.023797,16.639808,1,-0.487854,0.009277,-0.007690,-0.872864,0.010000,-0.010000,-0.030000,0.003540,0.013080,-0.030272,-0.042606,-0.134195,-0.030398,0.000000,
356367440,-0.390755,16.630521,1,-0.487854,0.009277,-0.007690,-0.872864,0.040000,0.000000,-0.050000,-0.020521,0.032937,-0.050933,-0.245288,-0.393934,-0.050707,0.000000,
356380011,0.160713,16.639808,1,-0.487854,0.009277,-0.007690,-0.872864,0.050000,-0.020000,-0.050000,-0.008724,0.051931,-0.051258,-0.014422,-0.095414,-0.051252,0.000000,
356388219,0.715278,16.630521,1,-0.487854,0.009277,-0.007690,-0.872864,0.030000,-0.010000,-0.070000,-0.006591,0.029212,-0.070734,0.408780,0.546015,-0.070520,0.000000,
356397361,-0.021752,16.630521,1,-0.487854,0.009277,-0.007690,-0.872864,0.030000,-0.020000,-0.070000,0.001927,0.034451,-0.070778,0.164679,0.223825,-0.070775,0.000000,
356409931,0.530769,16.630521,1,-0.487854,0.009277,-0.007690,-0.872864,0.030000,-0.010000,-0.040000,-0.006851,0.029886,-0.040743,0.380091,0.491679,-0.041074,0.000000,
356418126,-0.297997,16.625877,1,-0.487854,0.009277,-0.007690,-0.872864,0.040000,0.010000,-0.060000,-0.028953,0.027473,-0.060887,-0.009848,-0.104569,-0.060668,0.000000,
356427353,-0.297997,16.625877,1,-0.487854,0.009277,-0.007690,-0.872864,0.010000,0.000000,-0.060000,-0.004717,0.007167,-0.060220,-0.177539,-0.320084,-0.060225,0.000000,
356439955,-0.208306,16.639808,1,-0.487854,0.009277,-0.007690,-0.872864,0.030000,0.000000,-0.060000,-0.015195,0.024197,-0.060694,-0.199449,-0.343516,-0.060688,0.000000,
356448157,-0.300042,16.635164,1,-0.487854,0.009277,-0.007690,-0.872864,0.030000,-0.020000,-0.050000,0.001754,0.034901,-0.050784,-0.260721,-0.432635,-0.050893,0.000000,
356457300,-0.206261,16.630521,1,-0.487854,0.009277,-0.007690,-0.872864,0.050000,-0.020000,-0.030000,-0.008898,0.052381,-0.031264,-0.233168,-0.392195,-0.031480,0.000000,
356469893,0.162757,16.630521,1,-0.487854,0.009277,-0.007690,-0.872864,0.050000,0.000000,-0.050000,-0.025760,0.041452,-0.051170,-0.008168,-0.102246,-0.050953,0.000000,
356478071,-0.208306,16.639808,1,-0.487854,0.009277,-0.007690,-0.872864,0.040000,-0.010000,-0.080000,-0.011743,0.037502,-0.080968,-0.125292,-0.279136,-0.080638,0.000000,
356487311,0.160713,16.639808,1,-0.487854,0.009277,-0.007690,-0.872864,0.020000,0.020000,-0.040000,-0.027166,0.005652,-0.040375,0.037614,-0.066028,-0.040819,0.000000,
356499893,-0.760781,16.639808,1,-0.487854,0.009277,-0.007690,-0.872864,0.040000,-0.010000,-0.040000,-0.012090,0.038401,-0.040980,-0.426982,-0.655676,-0.040978,0.000000,
356508085,-0.021752,16.630521,1,-0.487854,0.009277,-0.007690,-0.872864,0.050000,-0.010000,-0.040000,-0.017329,0.046916,-0.041217,-0.196889,-0.298635,-0.041214,0.000000,
356517259,0.069480,16.635164,1,-0.487854,0.009277,-0.007690,-0.872864,0.050000,0.010000,-0.050000,-0.034278,0.036212,-0.051127,-0.045510,-0.099922,-0.051017,0.000000,
356529835,-0.301583,16.644451,1,-0.487854,0.009277,-0.007690,-0.872864,0.040000,-0.020000,-0.040000,-0.003572,0.043641,-0.041024,-0.195498,-0.288827,-0.041134,0.000000,
356538028,0.346244,16.630521,1,-0.487854,0.009277,-0.007690,-0.872864,0.060000,-0.020000,-0.040000,-0.014050,0.060671,-0.041498,0.116909,0.188096,-0.041494,0.000000,
356547279,0.437995,16.635164,1,-0.487854,0.009277,-0.007690,-0.872864,0.010000,0.010000,-0.060000,-0.013236,0.001927,-0.060176,0.304442,0.427581,-0.059970,0.000000,
356559862,0.071021,16.625877,1,-0.487854,0.009277,-0.007690,-0.872864,0.020000,-0.010000,-0.060000,-0.001438,0.020921,-0.060500,0.174224,0.254274,-0.060494,0.000000,
356568054,-0.023797,16.639808,1,-0.487854,0.009277,-0.007690,-0.872864,0.050000,0.000000,-0.050000,-0.025760,0.041452,-0.051170,0.061238,0.079018,-0.051273,0.000000,
356577171,-0.023797,16.639808,1,-0.487854,0.009277,-0.007690,-0.872864,0.040000,-0.010000,-0.030000,-0.012177,0.038626,-0.030983,0.012759,0.015091,-0.031207,0.000000,
356589848,0.160713,16.639808,1,-0.487854,0.009277,-0.007690,-0.872864,0.040000,-0.010000,-0.050000,-0.012003,0.038176,-0.050977,0.098881,0.123005,-0.050759,0.000000,
356598071,0.440040,16.625877,1,-0.487854,0.009277,-0.007690,-0.872864,0.030000,0.000000,-0.020000,-0.015543,0.025096,-0.020705,0.298161,0.424765,-0.021036,0.000000,
356607213,-0.392815,16.639808,1,-0.487854,0.009277,-0.007690,-0.872864,0.040000,-0.010000,-0.050000,-0.012003,0.038176,-0.050977,-0.097784,-0.094498,-0.050647,0.000000,
356616809,0.255531,16.625877,1,-0.487854,0.009277,-0.007690,-0.872864,0.070000,-0.010000,-0.050000,-0.027720,0.063722,-0.051688,0.105738,0.165024,-0.051677,0.000000,
356629640,0.346244,16.630521,1,-0.487854,0.009277,-0.007690,-0.872864,0.040000,-0.010000,-0.050000,-0.012003,0.038176,-0.050977,0.247677,0.344910,-0.050985,0.000000,
356638039,0.162757,16.630521,1,-0.487854,0.009277,-0.007690,-0.872864,0.060000,0.000000,-0.040000,-0.031086,0.050192,-0.041410,0.201176,0.268164,-0.041516,0.000000,
356647179,-0.115548,16.635164,1,-0.487854,0.009277,-0.007690,-0.872864,0.050000,-0.020000,-0.060000,-0.008637,0.051706,-0.061255,0.020250,0.025274,-0.061037,0.000000,
356659753,-0.023797,16.639808,1,-0.487854,0.009277,-0.007690,-0.872864,0.020000,-0.010000,-0.040000,-0.001612,0.021371,-0.040506,-0.005025,-0.007923,-0.040732,0.000000,
356667948,0.346244,16.630521,1,-0.487854,0.009277,-0.007690,-0.872864,0.040000,-0.020000,-0.040000,-0.003572,0.043641,-0.041024,0.199037,0.302372,-0.041021,0.000000,
356677091,-0.021752,16.630521,1,-0.487854,0.009277,-0.007690,-0.872864,0.020000,-0.010000,-0.060000,-0.001438,0.020921,-0.060500,0.074049,0.136330,-0.060286,0.000000,
356689671,-0.115548,16.635164,1,-0.487854,0.009277,-0.007690,-0.872864,0.030000,0.000000,-0.040000,-0.015369,0.024646,-0.040699,-0.034357,-0.003676,-0.040915,0.000000,
356697862,-0.484032,16.635164,1,-0.487854,0.009277,-0.007690,-0.872864,0.020000,0.000000,-0.050000,-0.010043,0.015906,-0.050459,-0.295675,-0.400750,-0.050354,0.000000,
356707004,0.346244,16.630521,1,-0.487854,0.009277,-0.007690,-0.872864,0.040000,-0.040000,-0.050000,0.013551,0.053895,-0.051108,0.072062,0.079302,-0.051100,0.000000,
356719591,0.622505,16.635164,1,-0.487854,0.009277,-0.007690,-0.872864,0.050000,0.000000,-0.050000,-0.025760,0.041452,-0.051170,0.392749,0.483477,-0.051170,0.000000,
356727794,0.898261,16.639808,1,-0.487854,0.009277,-0.007690,-0.872864,0.050000,0.000000,-0.050000,-0.025760,0.041452,-0.051170,0.690453,0.929176,-0.051170,0.000000,
356737043,0.160713,16.639808,1,-0.487854,0.009277,-0.007690,-0.872864,0.050000,-0.020000,-0.050000,-0.008724,0.051931,-0.051258,0.392495,0.531712,-0.051257,0.000000,
356749664,0.069480,16.635164,1,-0.487854,0.009277,-0.007690,-0.872864,0.040000,0.010000,-0.060000,-0.028953,0.027473,-0.060887,0.211543,0.291695,-0.060781,0.000000,
356757839,0.437995,16.635164,1,-0.487854,0.009277,-0.007690,-0.872864,0.000000,-0.020000,-0.050000,0.017471,0.009355,-0.050073,0.345527,0.491977,-0.050191,0.000000,
356767000,-0.300042,16.635164,1,-0.487854,0.009277,-0.007690,-0.872864,0.010000,-0.010000,-0.060000,0.003801,0.012406,-0.060263,-0.023508,0.007419,-0.060152,0.000000,
356787264,0.253471,16.635164,1,-0.487854,0.009277,-0.007690,-0.872864,0.050000,0.000000,-0.050000,-0.025760,0.041452,-0.051170,0.139077,0.210493,-0.051269,0.000000,
356796740,-0.021752,16.630521,1,-0.487854,0.009277,-0.007690,-0.872864,0.010000,0.000000,-0.080000,-0.004544,0.006717,-0.080214,0.045837,0.014993,-0.079895,0.000000,
356806502,-0.206261,16.630521,1,-0.487854,0.009277,-0.007690,-0.872864,0.040000,-0.010000,-0.040000,-0.012090,0.038401,-0.040980,-0.101258,-0.220870,-0.041409,0.000000,
356819369,-0.021752,16.630521,1,-0.487854,0.009277,-0.007690,-0.872864,0.040000,-0.020000,-0.050000,-0.003485,0.043416,-0.051021,-0.057687,-0.155527,-0.050915,0.000000,
356827758,0.348304,16.621234,1,-0.487854,0.009277,-0.007690,-0.872864,0.060000,-0.020000,-0.050000,-0.013963,0.060446,-0.051495,0.177458,0.217101,-0.051489,0.000000,
356836901,0.346244,16.630521,1,-0.487854,0.009277,-0.007690,-0.872864,0.040000,0.010000,-0.050000,-0.029039,0.027697,-0.050890,0.277180,0.345342,-0.050896,0.000000,
356849473,0.069480,16.635164,1,-0.487854,0.009277,-0.007690,-0.872864,0.050000,-0.010000,-0.050000,-0.017242,0.046692,-0.051214,0.160889,0.193046,-0.051211,0.000000,
356857677,-0.113488,16.625877,1,-0.487854,0.009277,-0.007690,-0.872864,0.030000,-0.020000,-0.060000,0.001841,0.034676,-0.060781,0.003106,-0.044666,-0.060676,0.000000,
356866820,0.441062,16.616590,1,-0.487854,0.009277,-0.007690,-0.872864,0.030000,0.000000,-0.040000,-0.015369,0.024646,-0.040699,0.255982,0.275639,-0.040919,0.000000,
356879393,0.440040,16.625877,1,-0.487854,0.009277,-0.007690,-0.872864,0.070000,-0.010000,-0.050000,-0.027720,0.063722,-0.051688,0.366280,0.407181,-0.051569,0.000000,
356887586,0.717338,16.621234,1,-0.487854,0.009277,-0.007690,-0.872864,0.060000,0.010000,-0.050000,-0.039517,0.044728,-0.051364,0.573475,0.708984,-0.051366,0.000000,
356896718,-0.575265,16.630521,1,-0.487854,0.009277,-0.007690,-0.872864,0.030000,0.010000,-0.050000,-0.023800,0.019182,-0.050653,-0.084355,-0.131289,-0.050661,0.000000,
356909315,0.069480,16.635164,1,-0.487854,0.009277,-0.007690,-0.872864,0.050000,-0.020000,-0.040000,-0.008811,0.052156,-0.041261,0.003283,-0.021322,-0.041364,0.000000,
356917488,-0.206261,16.630521,1,-0.487854,0.009277,-0.007690,-0.872864,0.020000,-0.020000,-0.040000,0.006906,0.026610,-0.040550,-0.118581,-0.202542,-0.040559,0.000000,
356926739,0.530769,16.630521,1,-0.487854,0.009277,-0.007690,-0.872864,0.020000,-0.010000,-0.040000,-0.001612,0.021371,-0.040506,0.255118,0.272425,-0.040507,0.000000,
356939330,-0.577309,16.639808,1,-0.487854,0.009277,-0.007690,-0.872864,0.010000,-0.030000,-0.020000,0.020489,0.023784,-0.020362,-0.224774,-0.331094,-0.020584,0.000000,
356947523,0.346244,16.630521,1,-0.487854,0.009277,-0.007690,-0.872864,0.040000,-0.010000,-0.060000,-0.011916,0.037952,-0.060974,0.104170,0.163364,-0.060529,0.000000,
356956656,0.069480,16.635164,1,-0.487854,0.009277,-0.007690,-0.872864,0.020000,-0.010000,-0.060000,-0.001438,0.020921,-0.060500,0.085596,0.137312,-0.060501,0.000000,
356969239,0.069480,16.635164,1,-0.487854,0.009277,-0.007690,-0.872864,0.030000,0.000000,-0.030000,-0.015456,0.024871,-0.030702,0.077966,0.125295,-0.031031,0.000000,
356977414,-0.021752,16.630521,1,-0.487854,0.009277,-0.007690,-0.872864,0.010000,0.000000,-0.050000,-0.004804,0.007391,-0.050222,0.021075,0.038505,-0.050011,0.000000,
356986591,-0.390755,16.630521,1,-0.487854,0.009277,-0.007690,-0.872864,0.040000,-0.010000,-0.060000,-0.011916,0.037952,-0.060974,-0.216767,-0.264653,-0.060853,0.000000,
356999164,0.162757,16.630521,1,-0.487854,0.009277,-0.007690,-0.872864,0.030000,-0.010000,-0.050000,-0.006764,0.029661,-0.050740,0.000242,0.009548,-0.050852,0.000000,
357007354,0.346244,16.630521,1,-0.487854,0.009277,-0.007690,-0.872864,0.020000,-0.020000,-0.060000,0.007080,0.026161,-0.060544,0.201282,0.309347,-0.060437,0.000000,
357016605,0.069480,16.635164,1,-0.487854,0.009277,-0.007690,-0.872864,0.040000,0.010000,-0.050000,-0.029039,0.027697,-0.050890,0.127899,0.211769,-0.050995,0.000000,
357026230,-0.208306,16.639808,1,-0.487854,0.009277,-0.007690,-0.872864,0.040000,-0.020000,-0.060000,-0.003398,0.043191,-0.061018,-0.064574,-0.033891,-0.060908,0.000000,
357039047,0.160713,16.639808,1,-0.487854,0.009277,-0.007690,-0.872864,0.050000,-0.010000,-0.050000,-0.017242,0.046692,-0.051214,0.065932,0.132829,-0.051321,0.000000,
357047445,-0.115548,16.635164,1,-0.487854,0.009277,-0.007690,-0.872864,0.050000,0.020000,-0.070000,-0.042623,0.030523,-0.071077,-0.038484,-0.028926,-0.070859,0.000000,
357056588,-0.577309,16.639808,1,-0.487854,0.009277,-0.007690,-0.872864,0.030000,0.000000,-0.040000,-0.015369,0.024646,-0.040699,-0.350629,-0.436203,-0.041032,0.000000,
357069180,-0.115548,16.635164,1,-0.487854,0.009277,-0.007690,-0.872864,0.020000,0.000000,-0.030000,-0.010217,0.016356,-0.030465,-0.219590,-0.264337,-0.030582,0.000000,
357077373,0.622505,16.635164,1,-0.487854,0.009277,-0.007690,-0.872864,0.020000,0.000000,-0.060000,-0.009956,0.015682,-0.060457,0.267459,0.471267,-0.060127,0.000000,
357086504,0.160713,16.639808,1,-0.487854,0.009277,-0.007690,-0.872864,0.040000,-0.020000,-0.070000,-0.003312,0.042966,-0.071015,0.210011,0.391556,-0.070895,0.000000,
357099140,0.069480,16.635164,1,-0.487854,0.009277,-0.007690,-0.872864,0.050000,0.000000,-0.050000,-0.025760,0.041452,-0.051170,0.133355,0.288804,-0.051388,0.000000,
357107328,0.437995,16.635164,1,-0.487854,0.009277,-0.007690,-0.872864,0.040000,0.020000,-0.060000,-0.037471,0.022233,-0.060843,0.312695,0.554622,-0.060739,0.000000,
357116467,0.162757,16.630521,1,-0.487854,0.009277,-0.007690,-0.872864,0.050000,-0.020000,-0.030000,-0.008898,0.052381,-0.031264,0.231030,0.443242,-0.031589,0.000000,
357129040,0.160713,16.639808,1,-0.487854,0.009277,-0.007690,-0.872864,0.030000,-0.010000,-0.050000,-0.006764,0.029661,-0.050740,0.195770,0.391446,-0.050529,0.000000,
357137232,0.069480,16.635164,1,-0.487854,0.009277,-0.007690,-0.872864,0.010000,0.000000,-0.050000,-0.004804,0.007391,-0.050222,0.125614,0.280838,-0.050226,0.000000,
357146389,-0.116570,16.644451,1,-0.487854,0.009277,-0.007690,-0.872864,0.040000,0.010000,-0.060000,-0.028953,0.027473,-0.060887,-0.011912,0.100848,-0.060769,0.000000,
357158960,0.253471,16.635164,1,-0.487854,0.009277,-0.007690,-0.872864,0.020000,0.010000,-0.050000,-0.018561,0.010667,-0.050416,0.143448,0.293636,-0.050530,0.000000,
357167151,0.160713,16.639808,1,-0.487854,0.009277,-0.007690,-0.872864,0.030000,-0.020000,-0.050000,0.001754,0.034901,-0.050784,0.155881,0.308305,-0.050781,0.000000,
357176308,-0.392815,16.639808,1,-0.487854,0.009277,-0.007690,-0.872864,0.040000,-0.010000,-0.070000,-0.011830,0.037727,-0.070971,-0.158709,-0.099351,-0.070749,0.000000,
357188891,-0.115548,16.635164,1,-0.487854,0.009277,-0.007690,-0.872864,0.040000,0.000000,-0.060000,-0.020434,0.032712,-0.060931,-0.134901,-0.068624,-0.061039,0.000000,
357197093,-0.023797,16.639808,1,-0.487854,0.009277,-0.007690,-0.872864,0.020000,-0.010000,-0.050000,-0.001525,0.021146,-0.050503,-0.070919,0.028201,-0.050619,0.000000,
357206343,0.069480,16.635164,1,-0.487854,0.009277,-0.007690,-0.872864,0.050000,0.010000,-0.050000,-0.034278,0.036212,-0.051127,0.010572,0.132085,-0.051121,0.000000,
357218962,0.160713,16.639808,1,-0.487854,0.009277,-0.007690,-0.872864,0.040000,-0.010000,-0.050000,-0.012003,0.038176,-0.050977,0.099442,0.241770,-0.050979,0.000000,
357227136,-0.023797,16.639808,1,-0.487854,0.009277,-0.007690,-0.872864,0.030000,0.000000,-0.050000,-0.015282,0.024422,-0.050696,0.029812,0.132983,-0.050700,0.000000,
357236276,0.253471,16.635164,1,-0.487854,0.009277,-0.007690,-0.872864,0.040000,-0.020000,-0.060000,-0.003398,0.043191,-0.061018,0.160414,0.298838,-0.060904,0.000000,
357248878,0.160713,16.639808,1,-0.487854,0.009277,-0.007690,-0.872864,0.020000,-0.010000,-0.060000,-0.001438,0.020921,-0.060500,0.164349,0.298294,-0.060505,0.000000,
357257049,-0.023797,16.639808,1,-0.487854,0.009277,-0.007690,-0.872864,0.020000,-0.010000,-0.040000,-0.001612,0.021371,-0.040506,0.057479,0.132896,-0.040726,0.000000,
357266207,-0.116570,16.644451,1,-0.487854,0.009277,-0.007690,-0.872864,0.020000,0.000000,-0.070000,-0.009870,0.015457,-0.070454,-0.041995,0.002864,-0.070126,0.000000,
357278795,0.344703,16.639808,1,-0.487854,0.009277,-0.007690,-0.872864,0.050000,0.000000,-0.050000,-0.025760,0.041452,-0.051170,0.182600,0.285085,-0.051379,0.000000,
357286962,-0.116570,16.644451,1,-0.487854,0.009277,-0.007690,-0.872864,0.050000,0.000000,-0.030000,-0.025934,0.041902,-0.031176,0.011121,0.022281,-0.031399,0.000000,
357296242,0.344703,16.639808,1,-0.487854,0.009277,-0.007690,-0.872864,0.040000,-0.010000,-0.040000,-0.012090,0.038401,-0.040980,0.204335,0.269968,-0.040875,0.000000,
357308824,0.255531,16.625877,1,-0.487854,0.009277,-0.007690,-0.872864,0.010000,-0.010000,-0.040000,0.003627,0.012856,-0.040269,0.237467,0.307209,-0.040276,0.000000,
357317014,0.162757,16.630521,1,-0.487854,0.009277,-0.007690,-0.872864,0.010000,-0.020000,-0.060000,0.012319,0.017646,-0.060307,0.196571,0.240961,-0.060086,0.000000,
357326156,0.528709,16.639808,1,-0.487854,0.009277,-0.007690,-0.872864,0.040000,-0.020000,-0.060000,-0.003398,0.043191,-0.061018,0.390928,0.488151,-0.061008,0.000000,
357338726,-0.208306,16.639808,1,-0.487854,0.009277,-0.007690,-0.872864,0.010000,0.000000,-0.060000,-0.004717,0.007167,-0.060220,0.049070,0.048516,-0.060228,0.000000,
357346928,0.069480,16.635164,1,-0.487854,0.009277,-0.007690,-0.872864,0.040000,0.010000,-0.070000,-0.028866,0.027248,-0.070884,0.061324,0.065853,-0.070766,0.000000,
357356067,0.620460,16.644451,1,-0.487854,0.009277,-0.007690,-0.872864,0.030000,-0.010000,-0.070000,-0.006591,0.029212,-0.070734,0.385403,0.482216,-0.070735,0.000000,
357368675,0.067939,16.644451,1,-0.487854,0.009277,-0.007690,-0.872864,0.010000,-0.010000,-0.040000,0.003627,0.012856,-0.040269,0.207112,0.249156,-0.040605,0.000000,
357376847,0.253471,16.635164,1,-0.487854,0.009277,-0.007690,-0.872864,0.020000,-0.020000,-0.060000,0.007080,0.026161,-0.060544,0.236081,0.289458,-0.060324,0.000000,
357385998,0.069480,16.635164,1,-0.487854,0.009277,-0.007690,-0.872864,0.020000,-0.020000,-0.060000,0.007080,0.026161,-0.060544,0.142343,0.164683,-0.060542,0.000000,
357395604,-0.115548,16.635164,1,-0.487854,0.009277,-0.007690,-0.872864,0.050000,-0.010000,-0.060000,-0.017155,0.046467,-0.061211,-0.005285,-0.025005,-0.061204,0.000000,
357408418,-0.486092,16.644451,1,-0.487854,0.009277,-0.007690,-0.872864,0.040000,-0.010000,-0.040000,-0.012090,0.038401,-0.040980,-0.285119,-0.385692,-0.041203,0.000000,
357416817,0.437995,16.635164,1,-0.487854,0.009277,-0.007690,-0.872864,0.010000,-0.020000,-0.060000,0.012319,0.017646,-0.060307,0.132228,0.262499,-0.060097,0.000000,
357425979,0.069480,16.635164,1,-0.487854,0.009277,-0.007690,-0.872864,0.030000,0.010000,-0.050000,-0.023800,0.019182,-0.050653,0.098303,0.214140,-0.050757,0.000000,
357438582,-0.208306,16.639808,1,-0.487854,0.009277,-0.007690,-0.872864,0.030000,-0.010000,-0.040000,-0.006851,0.029886,-0.040743,-0.077136,-0.013733,-0.040853,0.000000,
357446754,0.069480,16.635164,1,-0.487854,0.009277,-0.007690,-0.872864,0.030000,0.000000,-0.050000,-0.015282,0.024422,-0.050696,0.007950,0.115503,-0.050588,0.000000,
357455923,0.251426,16.644451,1,-0.487854,0.009277,-0.007690,-0.872864,0.040000,0.010000,-0.060000,-0.028953,0.027473,-0.060887,0.149881,0.297020,-0.060773,0.000000,
357468493,0.251426,16.644451,1,-0.487854,0.009277,-0.007690,-0.872864,0.040000,-0.010000,-0.030000,-0.012177,0.038626,-0.030983,0.212589,0.371308,-0.031311,0.000000,
357476683,0.344703,16.639808,1,-0.487854,0.009277,-0.007690,-0.872864,0.030000,0.000000,-0.040000,-0.015369,0.024646,-0.040699,0.292390,0.487303,-0.040596,0.000000,
357485926,0.344703,16.639808,1,-0.487854,0.009277,-0.007690,-0.872864,0.040000,0.000000,-0.040000,-0.020608,0.033162,-0.040936,0.327163,0.526014,-0.040933,0.000000,
357498498,0.067939,16.644451,1,-0.487854,0.009277,-0.007690,-0.872864,0.030000,0.000000,-0.050000,-0.015282,0.024422,-0.050696,0.183195,0.333904,-0.050589,0.000000,
357506669,-0.023797,16.639808,1,-0.487854,0.009277,-0.007690,-0.872864,0.040000,-0.010000,-0.050000,-0.012003,0.038176,-0.050977,0.065649,0.150888,-0.050973,0.000000,
357515803,-0.023797,16.639808,1,-0.487854,0.009277,-0.007690,-0.872864,0.030000,-0.020000,-0.050000,0.001754,0.034901,-0.050784,0.015276,0.083592,-0.050786,0.000000,
357528387,-0.025857,16.649095,1,-0.487854,0.009277,-0.007690,-0.872864,0.040000,0.010000,-0.040000,-0.029126,0.027922,-0.040893,-0.007563,0.052888,-0.041002,0.000000,
357536590,0.253471,16.635164,1,-0.487854,0.009277,-0.007690,-0.872864,0.070000,0.010000,-0.040000,-0.044843,0.053468,-0.041604,0.144542,0.282522,-0.041597,0.000000,
357545839,-0.208306,16.639808,1,-0.487854,0.009277,-0.007690,-0.872864,0.050000,-0.010000,-0.060000,-0.017155,0.046467,-0.061211,-0.057027,0.017916,-0.060995,0.000000,
357558429,0.251426,16.644451,1,-0.487854,0.009277,-0.007690,-0.872864,0.040000,-0.020000,-0.040000,-0.003572,0.043641,-0.041024,0.122380,0.245563,-0.041244,0.000000,
357566603,-0.115548,16.635164,1,-0.487854,0.009277,-0.007690,-0.872864,0.030000,0.000000,-0.040000,-0.015369,0.024646,-0.040699,-0.013871,0.034945,-0.040705,0.000000,
357575744,0.344703,16.639808,1,-0.487854,0.009277,-0.007690,-0.872864,0.030000,-0.010000,-0.020000,-0.007025,0.030336,-0.020749,0.193910,0.303067,-0.020969,0.000000,
357588344,-0.023797,16.639808,1,-0.487854,0.009277,-0.007690,-0.872864,0.040000,-0.010000,-0.040000,-0.012090,0.038401,-0.040980,0.071283,0.142539,-0.040760,0.000000,
357596546,-0.392815,16.639808,1,-0.487854,0.009277,-0.007690,-0.872864,0.030000,0.020000,-0.040000,-0.032405,0.014167,-0.040612,-0.197226,-0.267366,-0.040614,0.000000,
357605689,0.713233,16.639808,1,-0.487854,0.009277,-0.007690,-0.872864,0.040000,-0.010000,-0.050000,-0.012003,0.038176,-0.050977,0.327116,0.414204,-0.050863,0.000000,
357618262,-0.210351,16.649095,1,-0.487854,0.009277,-0.007690,-0.872864,0.030000,-0.010000,-0.030000,-0.006938,0.030111,-0.030746,0.020167,0.018464,-0.030968,0.000000,
357626467,-0.116570,16.644451,1,-0.487854,0.009277,-0.007690,-0.872864,0.030000,-0.010000,-0.050000,-0.006764,0.029661,-0.050740,-0.059136,-0.102524,-0.050522,0.000000,
357635769,0.435935,16.644451,1,-0.487854,0.009277,-0.007690,-0.872864,0.010000,0.010000,-0.040000,-0.013409,0.002377,-0.040182,0.226413,0.267948,-0.040296,0.000000,
357648406,-0.116570,16.644451,1,-0.487854,0.009277,-0.007690,-0.872864,0.050000,-0.010000,-0.060000,-0.017155,0.046467,-0.061211,0.030512,0.012420,-0.060981,0.000000,
357656572,0.158653,16.649095,1,-0.487854,0.009277,-0.007690,-0.872864,0.030000,-0.010000,-0.050000,-0.006764,0.029661,-0.050740,0.105083,0.125744,-0.050853,0.000000,
357665712,0.067939,16.644451,1,-0.487854,0.009277,-0.007690,-0.872864,0.020000,0.010000,-0.030000,-0.018735,0.011116,-0.030422,0.084739,0.097616,-0.030647,0.000000,
357678277,-0.115548,16.635164,1,-0.487854,0.009277,-0.007690,-0.872864,0.040000,0.000000,-0.050000,-0.020521,0.032937,-0.050933,-0.030362,-0.050401,-0.050710,0.000000,
357686470,-0.023797,16.639808,1,-0.487854,0.009277,-0.007690,-0.872864,0.040000,-0.030000,-0.060000,0.005120,0.048431,-0.061062,-0.026962,-0.045113,-0.060948,0.000000,
357695613,0.251426,16.644451,1,-0.487854,0.009277,-0.007690,-0.872864,0.040000,0.000000,-0.060000,-0.020434,0.032712,-0.060931,0.133693,0.162733,-0.060931,0.000000,
357708182,0.344703,16.639808,1,-0.487854,0.009277,-0.007690,-0.872864,0.020000,-0.010000,-0.060000,-0.001438,0.020921,-0.060500,0.258285,0.317202,-0.060505,0.000000,
357716374,-0.023797,16.639808,1,-0.487854,0.009277,-0.007690,-0.872864,0.030000,-0.010000,-0.060000,-0.006677,0.029436,-0.060737,0.096978,0.067909,-0.060735,0.000000,
357725527,-0.023797,16.639808,1,-0.487854,0.009277,-0.007690,-0.872864,0.040000,0.000000,-0.040000,-0.020608,0.033162,-0.040936,0.027719,-0.022907,-0.041155,0.000000,
357738104,-0.303124,16.653738,1,-0.487854,0.009277,-0.007690,-0.872864,0.050000,-0.010000,-0.060000,-0.017155,0.046467,-0.061211,-0.164730,-0.267290,-0.060990,0.000000,
357746289,-0.208306,16.639808,1,-0.487854,0.009277,-0.007690,-0.872864,0.000000,-0.020000,-0.050000,0.017471,0.009355,-0.050073,-0.192240,-0.306170,-0.050193,0.000000,
357755537,0.251426,16.644451,1,-0.487854,0.009277,-0.007690,-0.872864,0.030000,-0.010000,-0.040000,-0.006851,0.029886,-0.040743,0.061661,0.025758,-0.040847,0.000000,
357775728,-0.578850,16.649095,1,-0.487854,0.009277,-0.007690,-0.872864,0.020000,0.000000,-0.040000,-0.010130,0.016131,-0.040462,-0.313527,-0.449520,-0.040467,0.000000,
357785216,0.069480,16.635164,1,-0.487854,0.009277,-0.007690,-0.872864,0.040000,-0.020000,-0.040000,-0.003572,0.043641,-0.041024,-0.091017,0.013450,-0.041018,0.000000,
357794936,0.162757,16.630521,1,-0.487854,0.009277,-0.007690,-0.872864,0.020000,-0.010000,-0.050000,-0.001525,0.021146,-0.050503,0.057320,0.250076,-0.050399,0.000000,
357809099,0.069480,16.635164,1,-0.487854,0.009277,-0.007690,-0.872864,0.050000,-0.010000,-0.050000,-0.017242,0.046692,-0.051214,0.067969,0.259428,-0.051205,0.000000,
357816689,-0.021752,16.630521,1,-0.487854,0.009277,-0.007690,-0.872864,0.050000,-0.010000,-0.050000,-0.017242,0.046692,-0.051214,0.017619,0.171710,-0.051214,0.000000,
357825586,-0.392815,16.639808,1,-0.487854,0.009277,-0.007690,-0.872864,0.030000,0.010000,-0.030000,-0.023974,0.019632,-0.030659,-0.218334,-0.136544,-0.030885,0.000000,
357835065,-0.023797,16.639808,1,-0.487854,0.009277,-0.007690,-0.872864,0.020000,-0.020000,-0.050000,0.006993,0.026386,-0.050547,-0.107159,0.001866,-0.050330,0.000000,
357847893,0.069480,16.635164,1,-0.487854,0.009277,-0.007690,-0.872864,0.030000,0.010000,-0.070000,-0.023627,0.018733,-0.070647,-0.004546,0.129013,-0.070423,0.000000,
357856281,-0.025857,16.649095,1,-0.487854,0.009277,-0.007690,-0.872864,0.030000,0.000000,-0.040000,-0.015369,0.024646,-0.040699,-0.015851,0.110042,-0.041027,0.000000,
357865390,-0.301583,16.644451,1,-0.487854,0.009277,-0.007690,-0.872864,0.050000,-0.010000,-0.060000,-0.017155,0.046467,-0.061211,-0.180176,-0.103284,-0.060989,0.000000,
357878020,0.162757,16.630521,1,-0.487854,0.009277,-0.007690,-0.872864,0.050000,0.000000,-0.040000,-0.025847,0.041677,-0.041173,0.017623,0.143890,-0.041392,0.000000,
357886208,0.437995,16.635164,1,-0.487854,0.009277,-0.007690,-0.872864,0.020000,0.000000,-0.050000,-0.010043,0.015906,-0.050459,0.262955,0.507272,-0.050360,0.000000,
357895349,-0.208306,16.639808,1,-0.487854,0.009277,-0.007690,-0.872864,0.050000,-0.010000,-0.030000,-0.017416,0.047141,-0.031220,-0.004956,0.161579,-0.031431,0.000000,
357907939,-0.115548,16.635164,1,-0.487854,0.009277,-0.007690,-0.872864,0.030000,-0.020000,-0.040000,0.001667,0.035126,-0.040787,-0.067122,0.081485,-0.040684,0.000000,
357916129,0.069480,16.635164,1,-0.487854,0.009277,-0.007690,-0.872864,0.050000,-0.020000,-0.060000,-0.008637,0.051706,-0.061255,0.012875,0.198974,-0.061028,0.000000,
357925272,0.344703,16.639808,1,-0.487854,0.009277,-0.007690,-0.872864,0.040000,0.010000,-0.050000,-0.029039,0.027697,-0.050890,0.206598,0.441782,-0.051001,0.000000,
357937842,-0.301583,16.644451,1,-0.487854,0.009277,-0.007690,-0.872864,0.020000,-0.010000,-0.050000,-0.001525,0.021146,-0.050503,-0.082847,0.074934,-0.050509,0.000000,
357946033,0.344703,16.639808,1,-0.487854,0.009277,-0.007690,-0.872864,0.030000,-0.020000,-0.050000,0.001754,0.034901,-0.050784,0.166067,0.444141,-0.050781,0.000000,
357955285,0.160713,16.639808,1,-0.487854,0.009277,-0.007690,-0.872864,0.030000,-0.010000,-0.040000,-0.006851,0.029886,-0.040743,0.167077,0.439832,-0.040854,0.000000,
357967861,0.160713,16.639808,1,-0.487854,0.009277,-0.007690,-0.872864,0.010000,-0.020000,-0.060000,0.012319,0.017646,-0.060307,0.168908,0.434449,-0.060093,0.000000,
357976049,-0.116570,16.644451,1,-0.487854,0.009277,-0.007690,-0.872864,0.050000,-0.010000,-0.060000,-0.017155,0.046467,-0.061211,0.006648,0.186069,-0.061199,0.000000,
357985216,0.160713,16.639808,1,-0.487854,0.009277,-0.007690,-0.872864,0.050000,0.000000,-0.040000,-0.025847,0.041677,-0.041173,0.097463,0.299134,-0.041394,0.000000,
357997786,-0.023797,16.639808,1,-0.487854,0.009277,-0.007690,-0.872864,0.060000,-0.020000,-0.050000,-0.013963,0.060446,-0.051495,0.030819,0.210631,-0.051384,0.000000,
358005979,0.251426,16.644451,1,-0.487854,0.009277,-0.007690,-0.872864,0.040000,0.010000,-0.060000,-0.028953,0.027473,-0.060887,0.160676,0.401640,-0.060782,0.000000,
358015201,-0.578850,16.649095,1,-0.487854,0.009277,-0.007690,-0.872864,0.030000,-0.020000,-0.060000,0.001841,0.034676,-0.060781,-0.263403,-0.144021,-0.060781,0.000000,
358027782,0.067939,16.644451,1,-0.487854,0.009277,-0.007690,-0.872864,0.020000,-0.030000,-0.050000,0.015511,0.031625,-0.050591,-0.072820,0.096539,-0.050703,0.000000,
358035972,-0.025857,16.649095,1,-0.487854,0.009277,-0.007690,-0.872864,0.060000,0.000000,-0.050000,-0.030999,0.049967,-0.051407,-0.044751,0.137016,-0.051400,0.000000,
358045132,-0.115548,16.635164,1,-0.487854,0.009277,-0.007690,-0.872864,0.050000,-0.020000,-0.060000,-0.008637,0.051706,-0.061255,-0.084450,0.084160,-0.061146,0.000000,
358057703,-0.303124,16.653738,1,-0.487854,0.009277,-0.007690,-0.872864,0.060000,0.000000,-0.060000,-0.030913,0.049742,-0.061405,-0.210362,-0.075471,-0.061402,0.000000,
358065875,0.067939,16.644451,1,-0.487854,0.009277,-0.007690,-0.872864,0.040000,0.000000,-0.050000,-0.020521,0.032937,-0.050933,-0.049330,0.166411,-0.051049,0.000000,
358075120,-0.115548,16.635164,1,-0.487854,0.009277,-0.007690,-0.872864,0.030000,-0.010000,-0.050000,-0.006764,0.029661,-0.050740,-0.086100,0.117052,-0.050744,0.000000,
358087701,0.158653,16.649095,1,-0.487854,0.009277,-0.007690,-0.872864,0.040000,-0.020000,-0.070000,-0.003312,0.042966,-0.071015,0.057501,0.294988,-0.070792,0.000000,
358095910,-0.025857,16.649095,1,-0.487854,0.009277,-0.007690,-0.872864,0.020000,-0.010000,-0.030000,-0.001699,0.021596,-0.030509,0.011496,0.221924,-0.030953,0.000000,
358105051,-0.025857,16.649095,1,-0.487854,0.009277,-0.007690,-0.872864,0.050000,0.000000,-0.090000,-0.025413,0.040553,-0.091159,-0.008087,0.193391,-0.090495,0.000000,
358117623,0.158653,16.649095,1,-0.487854,0.009277,-0.007690,-0.872864,0.050000,0.010000,-0.060000,-0.034192,0.035988,-0.061124,0.091155,0.313997,-0.061447,0.000000,
358125825,-0.116570,16.644451,1,-0.487854,0.009277,-0.007690,-0.872864,0.020000,0.010000,-0.050000,-0.018561,0.010667,-0.050416,-0.026940,0.132301,-0.050537,0.000000,
358135076,-0.394860,16.649095,1,-0.487854,0.009277,-0.007690,-0.872864,0.030000,-0.020000,-0.040000,0.001667,0.035126,-0.040787,-0.238577,-0.140854,-0.040894,0.000000,
358147709,0.344703,16.639808,1,-0.487854,0.009277,-0.007690,-0.872864,0.040000,-0.010000,-0.070000,-0.011830,0.037727,-0.070971,0.098417,0.285905,-0.070640,0.000000,
358155876,0.160713,16.639808,1,-0.487854,0.009277,-0.007690,-0.872864,0.030000,-0.020000,-0.060000,0.001841,0.034676,-0.060781,0.136944,0.340111,-0.060890,0.000000,
358165036,0.344703,16.639808,1,-0.487854,0.009277,-0.007690,-0.872864,0.050000,0.000000,-0.050000,-0.025760,0.041452,-0.051170,0.260246,0.493892,-0.051278,0.000000,
358177634,-0.210351,16.649095,1,-0.487854,0.009277,-0.007690,-0.872864,0.010000,0.000000,-0.050000,-0.004804,0.007391,-0.050222,-0.006812,0.149736,-0.050234,0.000000,
358185816,-0.208306,16.639808,1,-0.487854,0.009277,-0.007690,-0.872864,0.040000,0.010000,-0.060000,-0.028953,0.027473,-0.060887,-0.122647,-0.027230,-0.060769,0.000000,
358194956,-0.210351,16.649095,1,-0.487854,0.009277,-0.007690,-0.872864,0.060000,0.000000,-0.040000,-0.031086,0.050192,-0.041410,-0.173632,-0.092730,-0.041624,0.000000,
358207549,-0.208306,16.639808,1,-0.487854,0.009277,-0.007690,-0.872864,0.010000,-0.010000,-0.030000,0.003540,0.013080,-0.030272,-0.194937,-0.118407,-0.030397,0.000000,
358215724,-0.486092,16.644451,1,-0.487854,0.009277,-0.007690,-0.872864,0.050000,-0.010000,-0.040000,-0.017329,0.046916,-0.041217,-0.365050,-0.373791,-0.041098,0.000000,
358224918,-0.118615,16.653738,1,-0.487854,0.009277,-0.007690,-0.872864,0.040000,0.000000,-0.060000,-0.020434,0.032712,-0.060931,-0.225922,-0.191331,-0.060712,0.000000,
358351954,0.251426,16.644451,1,-0.487854,0.009277,-0.007690,-0.872864,0.040000,-0.010000,-0.040000,-0.012090,0.038401,-0.040980,0.066671,0.153049,-0.041198,0.000000,
358358988,0.544090,16.565512,1,-0.487854,0.009277,-0.007690,-0.872864,0.040000,0.010000,-0.030000,-0.029213,0.028147,-0.030896,0.442727,1.758532,-0.031009,0.000000,
358374318,-0.286202,16.570155,1,-0.487854,0.009277,-0.007690,-0.872864,0.040000,0.000000,-0.050000,-0.020521,0.032937,-0.050933,0.009860,0.677686,-0.050714,0.000000,
358384157,-0.103753,16.579442,1,-0.487854,0.009277,-0.007690,-0.872864,0.030000,0.000000,-0.060000,-0.015195,0.024197,-0.060694,-0.050952,0.567138,-0.060584,0.000000,
358397093,0.078712,16.588729,1,-0.487854,0.009277,-0.007690,-0.872864,0.030000,0.000000,-0.060000,-0.015195,0.024197,-0.060694,0.031903,0.649378,-0.060692,0.000000,
358405471,0.355979,16.584086,1,-0.487854,0.009277,-0.007690,-0.872864,0.030000,-0.020000,-0.050000,0.001754,0.034901,-0.050784,0.224468,0.836175,-0.050893,0.000000,
358414612,0.263221,16.588729,1,-0.487854,0.009277,-0.007690,-0.872864,0.020000,0.000000,-0.060000,-0.009956,0.015682,-0.060457,0.254359,0.853021,-0.060351,0.000000,
358427244,0.076652,16.598016,1,-0.487854,0.009277,-0.007690,-0.872864,0.040000,0.000000,-0.050000,-0.020521,0.032937,-0.050933,0.162999,0.778375,-0.051037,0.000000,
358435411,0.261161,16.598016,1,-0.487854,0.009277,-0.007690,-0.872864,0.030000,-0.010000,-0.050000,-0.006764,0.029661,-0.050740,0.225761,0.826273,-0.050743,0.000000,
358444571,0.076652,16.598016,1,-0.487854,0.009277,-0.007690,-0.872864,0.050000,0.010000,-0.050000,-0.034278,0.036212,-0.051127,0.147857,0.763428,-0.051122,0.000000,
358457181,0.168403,16.602660,1,-0.487854,0.009277,-0.007690,-0.872864,0.050000,0.000000,-0.070000,-0.025587,0.041002,-0.071165,0.169282,0.771077,-0.070944,0.000000,
358465364,-0.387688,16.611947,1,-0.487854,0.009277,-0.007690,-0.872864,0.040000,-0.020000,-0.060000,-0.003398,0.043191,-0.061018,-0.144559,0.487656,-0.061127,0.000000,
358474526,0.166343,16.611947,1,-0.487854,0.009277,-0.007690,-0.872864,0.020000,-0.020000,-0.040000,0.006906,0.026610,-0.040550,0.038200,0.622873,-0.040777,0.000000,
358487140,0.719383,16.611947,1,-0.487854,0.009277,-0.007690,-0.872864,0.040000,-0.020000,-0.060000,-0.003398,0.043191,-0.061018,0.437663,0.918656,-0.060795,0.000000,
358495330,0.441062,16.616590,1,-0.487854,0.009277,-0.007690,-0.872864,0.020000,0.000000,-0.040000,-0.010130,0.016131,-0.040462,0.447141,0.920135,-0.040686,0.000000,
358504504,0.071021,16.625877,1,-0.487854,0.009277,-0.007690,-0.872864,0.030000,0.010000,-0.060000,-0.023714,0.018957,-0.060650,0.239757,0.747781,-0.060430,0.000000,
358517075,0.257575,16.616590,1,-0.487854,0.009277,-0.007690,-0.872864,0.070000,0.010000,-0.050000,-0.044756,0.053243,-0.051601,0.259404,0.755252,-0.051698,0.000000,
358525274,-0.206261,16.630521,1,-0.487854,0.009277,-0.007690,-0.872864,0.030000,-0.010000,-0.040000,-0.006851,0.029886,-0.040743,-0.002433,0.496648,-0.040864,0.000000,
358534520,-0.113488,16.625877,1,-0.487854,0.009277,-0.007690,-0.872864,0.050000,0.000000,-0.060000,-0.025674,0.041227,-0.061168,-0.061608,0.443193,-0.060944,0.000000,
358547014,-0.113488,16.625877,1,-0.487854,0.009277,-0.007690,-0.872864,0.050000,0.000000,-0.060000,-0.025674,0.041227,-0.061168,-0.085941,0.417697,-0.061165,0.000000,
358555206,0.253471,16.635164,1,-0.487854,0.009277,-0.007690,-0.872864,0.020000,0.000000,-0.050000,-0.010043,0.015906,-0.050459,0.112951,0.612619,-0.050577,0.000000,
358564443,0.346244,16.630521,1,-0.487854,0.009277,-0.007690,-0.872864,0.020000,0.000000,-0.060000,-0.009956,0.015682,-0.060457,0.252623,0.727327,-0.060348,0.000000,
358576945,0.069480,16.635164,1,-0.487854,0.009277,-0.007690,-0.872864,0.030000,0.010000,-0.060000,-0.023714,0.018957,-0.060650,0.156218,0.636061,-0.060646,0.000000,
358585332,-0.115548,16.635164,1,-0.487854,0.009277,-0.007690,-0.872864,0.060000,-0.010000,-0.060000,-0.022394,0.054982,-0.061448,0.004909,0.473421,-0.061439,0.000000,
358594473,-0.021752,16.630521,1,-0.487854,0.009277,-0.007690,-0.872864,0.040000,-0.010000,-0.060000,-0.011916,0.037952,-0.060974,-0.006091,0.459062,-0.060979,0.000000,
358607060,0.713233,16.639808,1,-0.487854,0.009277,-0.007690,-0.872864,0.050000,0.000000,-0.050000,-0.025760,0.041452,-0.051170,0.414290,0.825832,-0.051279,0.000000,
358615250,0.530769,16.630521,1,-0.487854,0.009277,-0.007690,-0.872864,0.020000,-0.010000,-0.040000,-0.001612,0.021371,-0.040506,0.488220,0.897579,-0.040625,0.000000,
358624378,0.435935,16.644451,1,-0.487854,0.009277,-0.007690,-0.872864,0.040000,0.000000,-0.060000,-0.020434,0.032712,-0.060931,0.466348,0.869354,-0.060707,0.000000,
358637062,-0.300042,16.635164,1,-0.487854,0.009277,-0.007690,-0.872864,0.040000,-0.010000,-0.060000,-0.011916,0.037952,-0.060974,0.035408,0.466840,-0.060971,0.000000,
358645253,0.162757,16.630521,1,-0.487854,0.009277,-0.007690,-0.872864,0.030000,-0.010000,-0.060000,-0.006677,0.029436,-0.060737,0.112713,0.547794,-0.060740,0.000000,
358654393,0.530769,16.630521,1,-0.487854,0.009277,-0.007690,-0.872864,0.020000,-0.020000,-0.050000,0.006993,0.026386,-0.050547,0.358210,0.775470,-0.050659,0.000000,
358666891,-0.023797,16.639808,1,-0.487854,0.009277,-0.007690,-0.872864,0.060000,0.010000,-0.050000,-0.039517,0.044728,-0.051364,0.147519,0.568545,-0.051356,0.000000,
358675093,0.160713,16.639808,1,-0.487854,0.009277,-0.007690,-0.872864,0.020000,0.010000,-0.070000,-0.018388,0.010217,-0.070410,0.159795,0.576563,-0.070200,0.000000,
358684358,0.069480,16.635164,1,-0.487854,0.009277,-0.007690,-0.872864,0.050000,0.000000,-0.030000,-0.025934,0.041902,-0.031176,0.113157,0.525841,-0.031606,0.000000,
358696988,0.437995,16.635164,1,-0.487854,0.009277,-0.007690,-0.872864,0.060000,-0.010000,-0.050000,-0.022481,0.055207,-0.051451,0.307336,0.706313,-0.051232,0.000000,
358705162,-0.025857,16.649095,1,-0.487854,0.009277,-0.007690,-0.872864,0.020000,0.000000,-0.050000,-0.010043,0.015906,-0.050459,0.120660,0.481371,-0.050468,0.000000,
358714321,-0.023797,16.639808,1,-0.487854,0.009277,-0.007690,-0.872864,0.040000,-0.020000,-0.060000,-0.003398,0.043191,-0.061018,0.041899,0.397941,-0.060902,0.000000,
358723946,-0.578850,16.649095,1,-0.487854,0.009277,-0.007690,-0.872864,0.030000,-0.010000,-0.060000,-0.006677,0.029436,-0.060737,-0.311711,0.044860,-0.060739,0.000000,
358736784,-0.116570,16.644451,1,-0.487854,0.009277,-0.007690,-0.872864,0.030000,0.000000,-0.030000,-0.015456,0.024871,-0.030702,-0.198336,0.158515,-0.031033,0.000000,
358745184,-0.023797,16.639808,1,-0.487854,0.009277,-0.007690,-0.872864,0.030000,-0.020000,-0.050000,0.001754,0.034901,-0.050784,-0.096057,0.281296,-0.050566,0.000000,
358754326,-0.116570,16.644451,1,-0.487854,0.009277,-0.007690,-0.872864,0.010000,0.000000,-0.040000,-0.004891,0.007616,-0.040225,-0.105309,0.268545,-0.040339,0.000000,
358766914,-0.394860,16.649095,1,-0.487854,0.009277,-0.007690,-0.872864,0.010000,-0.010000,-0.050000,0.003714,0.012631,-0.050266,-0.269279,0.097326,-0.050157,0.000000,
358775091,-0.208306,16.639808,1,-0.487854,0.009277,-0.007690,-0.872864,0.030000,0.010000,-0.060000,-0.023714,0.018957,-0.060650,-0.233234,0.139990,-0.060534,0.000000,
358784232,0.158653,16.649095,1,-0.487854,0.009277,-0.007690,-0.872864,0.030000,0.000000,-0.060000,-0.015195,0.024197,-0.060694,-0.006157,0.375472,-0.060692,0.000000,
358796840,-0.023797,16.639808,1,-0.487854,0.009277,-0.007690,-0.872864,0.040000,-0.020000,-0.060000,-0.003398,0.043191,-0.061018,-0.011624,0.364210,-0.061014,0.000000,
358805020,-0.023797,16.639808,1,-0.487854,0.009277,-0.007690,-0.872864,0.040000,-0.020000,-0.060000,-0.003398,0.043191,-0.061018,-0.015687,0.354952,-0.061018,0.000000,
358814163,0.342658,16.649095,1,-0.487854,0.009277,-0.007690,-0.872864,0.030000,0.010000,-0.030000,-0.023974,0.019632,-0.030659,0.194091,0.574260,-0.030993,0.000000,
358826742,0.435935,16.644451,1,-0.487854,0.009277,-0.007690,-0.872864,0.050000,0.000000,-0.050000,-0.025760,0.041452,-0.051170,0.341151,0.720013,-0.050948,0.000000,
358834908,-0.394860,16.649095,1,-0.487854,0.009277,-0.007690,-0.872864,0.020000,-0.010000,-0.060000,-0.001438,0.020921,-0.060500,-0.078756,0.181625,-0.060395,0.000000,
358844131,-0.023797,16.639808,1,-0.487854,0.009277,-0.007690,-0.872864,0.060000,0.000000,-0.050000,-0.030999,0.049967,-0.051407,-0.045396,0.215344,-0.051506,0.000000,
358856713,-0.394860,16.649095,1,-0.487854,0.009277,-0.007690,-0.872864,0.050000,-0.030000,-0.060000,-0.000119,0.056946,-0.061299,-0.244854,-0.001349,-0.061191,0.000000,
358864904,-0.301583,16.644451,1,-0.487854,0.009277,-0.007690,-0.872864,0.040000,0.000000,-0.060000,-0.020434,0.032712,-0.060931,-0.277699,-0.044032,-0.060933,0.000000,
358874148,-0.025857,16.649095,1,-0.487854,0.009277,-0.007690,-0.872864,0.020000,0.000000,-0.070000,-0.009870,0.015457,-0.070454,-0.132857,0.114784,-0.070349,0.000000,
358894537,-0.025857,16.649095,1,-0.487854,0.009277,-0.007690,-0.872864,0.020000,0.000000,-0.030000,-0.010217,0.016356,-0.030465,-0.068076,0.181410,-0.030905,0.000000,
358903957,0.622505,16.635164,1,-0.487854,0.009277,-0.007690,-0.872864,0.040000,-0.010000,-0.030000,-0.012177,0.038626,-0.030983,0.340060,0.900675,-0.030982,0.000000,
358913678,0.346244,16.630521,1,-0.487854,0.009277,-0.007690,-0.872864,0.050000,-0.020000,-0.060000,-0.008637,0.051706,-0.061255,0.352409,0.905046,-0.060921,0.000000,
358926495,-0.486092,16.644451,1,-0.487854,0.009277,-0.007690,-0.872864,0.040000,0.000000,-0.040000,-0.020608,0.033162,-0.040936,-0.123454,0.304869,-0.041157,0.000000,
358934882,-0.115548,16.635164,1,-0.487854,0.009277,-0.007690,-0.872864,0.020000,0.000000,-0.050000,-0.010043,0.015906,-0.050459,-0.116311,0.310730,-0.050357,0.000000,
358944032,-0.577309,16.639808,1,-0.487854,0.009277,-0.007690,-0.872864,0.040000,-0.010000,-0.060000,-0.011916,0.037952,-0.060974,-0.379651,0.004539,-0.060857,0.000000,
358956618,0.251426,16.644451,1,-0.487854,0.009277,-0.007690,-0.872864,0.040000,0.010000,-0.080000,-0.028779,0.027023,-0.080881,-0.014227,0.406225,-0.080660,0.000000,
358964809,0.251426,16.644451,1,-0.487854,0.009277,-0.007690,-0.872864,0.020000,0.000000,-0.060000,-0.009956,0.015682,-0.060457,0.142926,0.607561,-0.060679,0.000000,
358973968,-0.025857,16.649095,1,-0.487854,0.009277,-0.007690,-0.872864,0.050000,0.000000,-0.050000,-0.025760,0.041452,-0.051170,0.051117,0.498263,-0.051275,0.000000,
358986544,-0.394860,16.649095,1,-0.487854,0.009277,-0.007690,-0.872864,0.020000,-0.020000,-0.050000,0.006993,0.026386,-0.050547,-0.200765,0.214253,-0.050555,0.000000,
358994734,-0.303124,16.653738,1,-0.487854,0.009277,-0.007690,-0.872864,0.030000,0.000000,-0.070000,-0.015109,0.023972,-0.070691,-0.258288,0.135417,-0.070469,0.000000,
359003982,0.344703,16.639808,1,-0.487854,0.009277,-0.007690,-0.872864,0.040000,-0.010000,-0.050000,-0.012003,0.038176,-0.050977,0.090917,0.527391,-0.051192,0.000000,
359016567,0.342658,16.649095,1,-0.487854,0.009277,-0.007690,-0.872864,0.010000,-0.010000,-0.070000,0.003887,0.012181,-0.070260,0.243321,0.689099,-0.070050,0.000000,
359024738,0.160713,16.639808,1,-0.487854,0.009277,-0.007690,-0.872864,0.050000,0.000000,-0.050000,-0.025760,0.041452,-0.051170,0.201098,0.624649,-0.051378,0.000000,
359033879,-0.025857,16.649095,1,-0.487854,0.009277,-0.007690,-0.872864,0.070000,0.000000,-0.060000,-0.036152,0.058258,-0.061642,0.075830,0.474681,-0.061528,0.000000,
359046481,0.067939,16.644451,1,-0.487854,0.009277,-0.007690,-0.872864,0.040000,0.000000,-0.060000,-0.020434,0.032712,-0.060931,0.077237,0.468792,-0.060937,0.000000,
359054682,-0.023797,16.639808,1,-0.487854,0.009277,-0.007690,-0.872864,0.030000,-0.010000,-0.050000,-0.006764,0.029661,-0.050740,0.022541,0.389305,-0.050853,0.000000,
359063932,0.065894,16.653738,1,-0.487854,0.009277,-0.007690,-0.872864,0.030000,0.000000,-0.050000,-0.015282,0.024422,-0.050696,0.051168,0.417717,-0.050698,0.000000,
359076504,0.158653,16.649095,1,-0.487854,0.009277,-0.007690,-0.872864,0.010000,-0.010000,-0.040000,0.003627,0.012856,-0.040269,0.118686,0.488199,-0.040384,0.000000,
359084678,-0.210351,16.649095,1,-0.487854,0.009277,-0.007690,-0.872864,0.020000,-0.010000,-0.070000,-0.001352,0.020696,-0.070497,-0.068014,0.227260,-0.070166,0.000000,
359093807,0.158653,16.649095,1,-0.487854,0.009277,-0.007690,-0.872864,0.050000,0.020000,-0.060000,-0.042710,0.030748,-0.061080,0.064916,0.379014,-0.061180,0.000000,
359106401,-0.025857,16.649095,1,-0.487854,0.009277,-0.007690,-0.872864,0.030000,0.000000,-0.050000,-0.015282,0.024422,-0.050696,0.017097,0.318319,-0.050812,0.000000,
359114570,0.433891,16.653738,1,-0.487854,0.009277,-0.007690,-0.872864,0.020000,0.010000,-0.050000,-0.018561,0.010667,-0.050416,0.261278,0.650267,-0.050420,0.000000,
359123819,-0.116570,16.644451,1,-0.487854,0.009277,-0.007690,-0.872864,0.020000,0.010000,-0.040000,-0.018648,0.010892,-0.040419,0.049091,0.393936,-0.040529,0.000000,
359136462,-0.118615,16.653738,1,-0.487854,0.009277,-0.007690,-0.872864,0.050000,0.000000,-0.050000,-0.025760,0.041452,-0.051170,-0.043137,0.280577,-0.051053,0.000000,
359144653,-0.303124,16.653738,1,-0.487854,0.009277,-0.007690,-0.872864,0.040000,0.010000,-0.050000,-0.029039,0.027697,-0.050890,-0.191594,0.070061,-0.050892,0.000000,
359153784,0.067939,16.644451,1,-0.487854,0.009277,-0.007690,-0.872864,0.030000,-0.010000,-0.050000,-0.006764,0.029661,-0.050740,-0.041063,0.247515,-0.050742,0.000000,
359163387,-0.303124,16.653738,1,-0.487854,0.009277,-0.007690,-0.872864,0.040000,0.000000,-0.030000,-0.020695,0.033386,-0.030939,-0.190046,0.070669,-0.031157,0.000000,
359176238,0.158653,16.649095,1,-0.487854,0.009277,-0.007690,-0.872864,0.060000,-0.010000,-0.060000,-0.022394,0.054982,-0.061448,0.013161,0.310358,-0.061114,0.000000,
359184635,-0.303124,16.653738,1,-0.487854,0.009277,-0.007690,-0.872864,0.040000,-0.010000,-0.060000,-0.011916,0.037952,-0.060974,-0.167837,0.047403,-0.060976,0.000000,
359193777,0.067939,16.644451,1,-0.487854,0.009277,-0.007690,-0.872864,0.030000,-0.010000,-0.060000,-0.006677,0.029436,-0.060737,-0.031125,0.213460,-0.060740,0.000000,
359206347,0.065894,16.653738,1,-0.487854,0.009277,-0.007690,-0.872864,0.000000,-0.020000,-0.070000,0.017645,0.008906,-0.070067,0.027811,0.279211,-0.069964,0.000000,
359214537,0.249885,16.653738,1,-0.487854,0.009277,-0.007690,-0.872864,0.030000,-0.010000,-0.070000,-0.006591,0.029212,-0.070734,0.158907,0.460783,-0.070726,0.000000,
359223689,-0.025857,16.649095,1,-0.487854,0.009277,-0.007690,-0.872864,0.030000,-0.010000,-0.060000,-0.006677,0.029436,-0.060737,0.056377,0.331576,-0.060847,0.000000,
359236271,-0.027901,16.658381,1,-0.487854,0.009277,-0.007690,-0.872864,0.050000,-0.010000,-0.060000,-0.017155,0.046467,-0.061211,0.011679,0.273048,-0.061207,0.000000,
359244474,-0.118615,16.653738,1,-0.487854,0.009277,-0.007690,-0.872864,0.010000,-0.010000,-0.010000,0.003366,0.013530,-0.010278,-0.061663,0.165670,-0.010839,0.000000,
359253616,0.158653,16.649095,1,-0.487854,0.009277,-0.007690,-0.872864,0.030000,-0.010000,-0.050000,-0.006764,0.029661,-0.050740,0.067147,0.319514,-0.050300,0.000000,
359266206,0.067939,16.644451,1,-0.487854,0.009277,-0.007690,-0.872864,0.060000,-0.020000,-0.050000,-0.013963,0.060446,-0.051495,0.071625,0.319412,-0.051482,0.000000,
359274397,-0.118615,16.653738,1,-0.487854,0.009277,-0.007690,-0.872864,0.020000,0.000000,-0.060000,-0.009956,0.015682,-0.060457,-0.036131,0.161298,-0.060358,0.000000,
359283637,-0.487618,16.653738,1,-0.487854,0.009277,-0.007690,-0.872864,0.040000,-0.010000,-0.030000,-0.012177,0.038626,-0.030983,-0.295565,-0.156847,-0.031307,0.000000,
359296218,0.065894,16.653738,1,-0.487854,0.009277,-0.007690,-0.872864,0.030000,-0.010000,-0.050000,-0.006764,0.029661,-0.050740,-0.087875,0.094394,-0.050526,0.000000,
359304408,0.342658,16.649095,1,-0.487854,0.009277,-0.007690,-0.872864,0.040000,-0.020000,-0.050000,-0.003485,0.043416,-0.051021,0.162721,0.453152,-0.051015,0.000000,
359313548,0.249885,16.653738,1,-0.487854,0.009277,-0.007690,-0.872864,0.060000,0.010000,-0.050000,-0.039517,0.044728,-0.051364,0.217235,0.514412,-0.051360,0.000000,
359326110,0.065894,16.653738,1,-0.487854,0.009277,-0.007690,-0.872864,0.020000,0.000000,-0.040000,-0.010130,0.016131,-0.040462,0.135915,0.408514,-0.040582,0.000000,
359334276,-0.025857,16.649095,1,-0.487854,0.009277,-0.007690,-0.872864,0.040000,0.000000,-0.040000,-0.020608,0.033162,-0.040936,0.045381,0.272944,-0.040932,0.000000,
359343525,-0.487618,16.653738,1,-0.487854,0.009277,-0.007690,-0.872864,0.040000,-0.010000,-0.050000,-0.012003,0.038176,-0.050977,-0.260175,-0.105774,-0.050866,0.000000,
359356145,0.158653,16.649095,1,-0.487854,0.009277,-0.007690,-0.872864,0.050000,0.000000,-0.050000,-0.025760,0.041452,-0.051170,-0.018504,0.188230,-0.051167,0.000000,
359364313,-0.210351,16.649095,1,-0.487854,0.009277,-0.007690,-0.872864,0.040000,-0.010000,-0.050000,-0.012003,0.038176,-0.050977,-0.128320,0.025927,-0.050979,0.000000,
359373456,-0.027901,16.658381,1,-0.487854,0.009277,-0.007690,-0.872864,0.040000,0.000000,-0.060000,-0.020434,0.032712,-0.060931,-0.070041,0.097126,-0.060821,0.000000,
359386056,-0.118615,16.653738,1,-0.487854,0.009277,-0.007690,-0.872864,0.050000,-0.010000,-0.060000,-0.017155,0.046467,-0.061211,-0.097003,0.062220,-0.061207,0.000000,
359394260,0.063835,16.663025,1,-0.487854,0.009277,-0.007690,-0.872864,0.030000,-0.010000,-0.040000,-0.006851,0.029886,-0.040743,-0.003135,0.197786,-0.040969,0.000000,
359403406,-0.765389,16.658381,1,-0.487854,0.009277,-0.007690,-0.872864,0.030000,-0.020000,-0.050000,0.001754,0.034901,-0.050784,-0.441979,-0.349999,-0.050676,0.000000,
359416035,-0.118615,16.653738,1,-0.487854,0.009277,-0.007690,-0.872864,0.050000,-0.010000,-0.050000,-0.017242,0.046692,-0.051214,-0.258773,-0.122376,-0.051208,0.000000,
359424210,-0.027901,16.658381,1,-0.487854,0.009277,-0.007690,-0.872864,0.050000,0.010000,-0.050000,-0.034278,0.036212,-0.051127,-0.125751,0.073354,-0.051128,0.000000,
359433371,0.620460,16.644451,1,-0.487854,0.009277,-0.007690,-0.872864,0.040000,0.010000,-0.040000,-0.029126,0.027922,-0.040893,0.306326,0.610307,-0.041005,0.000000,
359445973,-0.027901,16.658381,1,-0.487854,0.009277,-0.007690,-0.872864,0.050000,-0.020000,-0.060000,-0.008637,0.051706,-0.061255,0.120064,0.372611,-0.061032,0.000000,
359454144,0.435935,16.644451,1,-0.487854,0.009277,-0.007690,-0.872864,0.040000,-0.020000,-0.020000,-0.003746,0.044090,-0.021030,0.306483,0.641441,-0.021470,0.000000,
359463277,0.433891,16.653738,1,-0.487854,0.009277,-0.007690,-0.872864,0.010000,0.000000,-0.050000,-0.004804,0.007391,-0.050222,0.385998,0.732970,-0.049906,0.000000,
359475831,0.342658,16.649095,1,-0.487854,0.009277,-0.007690,-0.872864,0.050000,-0.020000,-0.060000,-0.008637,0.051706,-0.061255,0.370047,0.701437,-0.061130,0.000000,
359484024,0.065894,16.653738,1,-0.487854,0.009277,-0.007690,-0.872864,0.020000,-0.010000,-0.070000,-0.001352,0.020696,-0.070497,0.199220,0.441775,-0.070394,0.000000,
359493291,-0.118615,16.653738,1,-0.487854,0.009277,-0.007690,-0.872864,0.040000,-0.010000,-0.040000,-0.012090,0.038401,-0.040980,0.019518,0.211210,-0.041304,0.000000,
359505866,-0.120659,16.663025,1,-0.487854,0.009277,-0.007690,-0.872864,0.040000,-0.010000,-0.040000,-0.012090,0.038401,-0.040980,-0.059199,0.110069,-0.040984,0.000000,
359514038,0.249885,16.653738,1,-0.487854,0.009277,-0.007690,-0.872864,0.040000,-0.010000,-0.050000,-0.012003,0.038176,-0.050977,0.121167,0.374740,-0.050867,0.000000,
359523269,0.156089,16.658381,1,-0.487854,0.009277,-0.007690,-0.872864,0.040000,-0.020000,-0.030000,-0.003659,0.043865,-0.031027,0.144820,0.399834,-0.031245,0.000000,
359535839,0.065894,16.653738,1,-0.487854,0.009277,-0.007690,-0.872864,0.050000,0.000000,-0.060000,-0.025674,0.041227,-0.061168,0.104027,0.342361,-0.060838,0.000000,
359544012,-0.305169,16.663025,1,-0.487854,0.009277,-0.007690,-0.872864,0.040000,0.000000,-0.030000,-0.020695,0.033386,-0.030939,-0.130781,-0.009457,-0.031269,0.000000,
359553173,-0.025857,16.649095,1,-0.487854,0.009277,-0.007690,-0.872864,0.030000,-0.020000,-0.040000,0.001667,0.035126,-0.040787,-0.070196,0.066595,-0.040682,0.000000,
359565745,-0.120659,16.663025,1,-0.487854,0.009277,-0.007690,-0.872864,0.010000,0.000000,-0.040000,-0.004891,0.007616,-0.040225,-0.098652,0.029899,-0.040230,0.000000,
359573935,-0.305169,16.663025,1,-0.487854,0.009277,-0.007690,-0.872864,0.040000,0.000000,-0.040000,-0.020608,0.033162,-0.040936,-0.218330,-0.148069,-0.040929,0.000000,
359583091,-0.025857,16.649095,1,-0.487854,0.009277,-0.007690,-0.872864,0.040000,-0.020000,-0.050000,-0.003485,0.043416,-0.051021,-0.108382,-0.007944,-0.050910,0.000000,
359592699,0.249885,16.653738,1,-0.487854,0.009277,-0.007690,-0.872864,0.050000,-0.020000,-0.050000,-0.008724,0.051931,-0.051258,0.098735,0.249089,-0.051254,0.000000,
359605511,-0.027901,16.658381,1,-0.487854,0.009277,-0.007690,-0.872864,0.020000,-0.020000,-0.050000,0.006993,0.026386,-0.050547,0.028341,0.155412,-0.050555,0.000000,
359613909,0.249885,16.653738,1,-0.487854,0.009277,-0.007690,-0.872864,0.060000,0.010000,-0.090000,-0.039170,0.043829,-0.091352,0.158436,0.349623,-0.090903,0.000000,
359623040,0.249885,16.653738,1,-0.487854,0.009277,-0.007690,-0.872864,0.020000,-0.010000,-0.060000,-0.001438,0.020921,-0.060500,0.214547,0.417578,-0.060835,0.000000,
359635640,-0.303124,16.653738,1,-0.487854,0.009277,-0.007690,-0.872864,0.050000,-0.010000,-0.070000,-0.017069,0.046242,-0.071208,-0.080797,0.040433,-0.071094,0.000000,
359643811,-0.212411,16.658381,1,-0.487854,0.009277,-0.007690,-0.872864,0.010000,0.010000,-0.050000,-0.013322,0.002152,-0.050179,-0.156914,-0.074246,-0.050409,0.000000,
359652973,0.249885,16.653738,1,-0.487854,0.009277,-0.007690,-0.872864,0.040000,0.000000,-0.060000,-0.020434,0.032712,-0.060931,0.077685,0.224116,-0.060815,0.000000,
359665591,-0.212411,16.658381,1,-0.487854,0.009277,-0.007690,-0.872864,0.070000,-0.020000,-0.060000,-0.019115,0.068737,-0.061729,-0.087914,0.013642,-0.061719,0.000000,
359673775,-0.212411,16.658381,1,-0.487854,0.009277,-0.007690,-0.872864,0.050000,-0.010000,-0.070000,-0.017069,0.046242,-0.071208,-0.160117,-0.095051,-0.071104,0.000000,
359683025,0.063835,16.663025,1,-0.487854,0.009277,-0.007690,-0.872864,0.030000,-0.010000,-0.050000,-0.006764,0.029661,-0.050740,-0.031451,0.069330,-0.050965,0.000000,
359695624,-0.118615,16.653738,1,-0.487854,0.009277,-0.007690,-0.872864,0.020000,-0.010000,-0.060000,-0.001438,0.020921,-0.060500,-0.081198,0.005118,-0.060395,0.000000,
359703816,0.158653,16.649095,1,-0.487854,0.009277,-0.007690,-0.872864,0.050000,0.000000,-0.050000,-0.025760,0.041452,-0.051170,0.058168,0.213501,-0.051272,0.000000,
359712957,-0.118615,16.653738,1,-0.487854,0.009277,-0.007690,-0.872864,0.050000,-0.010000,-0.080000,-0.016982,0.046017,-0.081205,-0.042137,0.082309,-0.080876,0.000000,
359725540,-0.398446,16.667668,1,-0.487854,0.009277,-0.007690,-0.872864,0.030000,-0.020000,-0.060000,0.001841,0.034676,-0.060781,-0.247972,-0.176619,-0.061002,0.000000,
359733743,0.342658,16.649095,1,-0.487854,0.009277,-0.007690,-0.872864,0.040000,-0.010000,-0.060000,-0.011916,0.037952,-0.060974,0.093647,0.336337,-0.060975,0.000000,
359742885,-0.027901,16.658381,1,-0.487854,0.009277,-0.007690,-0.872864,0.040000,-0.010000,-0.070000,-0.011830,0.037727,-0.070971,0.026413,0.245928,-0.070861,0.000000,
359755454,0.063835,16.663025,1,-0.487854,0.009277,-0.007690,-0.872864,0.040000,-0.020000,-0.030000,-0.003659,0.043865,-0.031027,0.051228,0.272685,-0.031466,0.000000,
359763647,0.527686,16.649095,1,-0.487854,0.009277,-0.007690,-0.872864,0.060000,0.000000,-0.040000,-0.031086,0.050192,-0.041410,0.330211,0.686859,-0.041301,0.000000,
359772886,-0.212411,16.658381,1,-0.487854,0.009277,-0.007690,-0.872864,0.020000,-0.010000,-0.040000,-0.001612,0.021371,-0.040506,0.022653,0.285554,-0.040515,0.000000,
359785468,-0.398446,16.667668,1,-0.487854,0.009277,-0.007690,-0.872864,0.040000,0.000000,-0.050000,-0.020521,0.032937,-0.050933,-0.218300,-0.022704,-0.050819,0.000000,
359793632,-0.025857,16.649095,1,-0.487854,0.009277,-0.007690,-0.872864,0.020000,-0.010000,-0.040000,-0.001612,0.021371,-0.040506,-0.106696,0.145041,-0.040620,0.000000,
359802883,0.249885,16.653738,1,-0.487854,0.009277,-0.007690,-0.872864,0.040000,0.000000,-0.060000,-0.020434,0.032712,-0.060931,0.100928,0.408161,-0.060707,0.000000,
359815472,0.156089,16.658381,1,-0.487854,0.009277,-0.007690,-0.872864,0.050000,0.000000,-0.020000,-0.026021,0.042126,-0.021179,0.138100,0.448259,-0.021615,0.000000,
359823645,0.156089,16.658381,1,-0.487854,0.009277,-0.007690,-0.872864,0.050000,0.000000,-0.040000,-0.025847,0.041677,-0.041173,0.152213,0.463659,-0.040958,0.000000,
359832787,0.341117,16.658381,1,-0.487854,0.009277,-0.007690,-0.872864,0.030000,0.000000,-0.030000,-0.015456,0.024871,-0.030702,0.265723,0.603336,-0.030815,0.000000,
359845376,0.156089,16.658381,1,-0.487854,0.009277,-0.007690,-0.872864,0.010000,-0.010000,-0.070000,0.003887,0.012181,-0.070260,0.209654,0.522635,-0.069826,0.000000,
359853545,0.247840,16.663025,1,-0.487854,0.009277,-0.007690,-0.872864,0.060000,-0.010000,-0.050000,-0.022481,0.055207,-0.051451,0.236104,0.555589,-0.051654,0.000000,
359862741,0.156089,16.658381,1,-0.487854,0.009277,-0.007690,-0.872864,0.050000,0.000000,-0.060000,-0.025674,0.041227,-0.061168,0.194923,0.495752,-0.061063,0.000000,
359882994,0.618415,16.653738,1,-0.487854,0.009277,-0.007690,-0.872864,0.020000,-0.020000,-0.050000,0.006993,0.026386,-0.050547,0.453255,0.804244,-0.050663,0.000000,
359892472,0.251426,16.644451,1,-0.487854,0.009277,-0.007690,-0.872864,0.040000,0.000000,-0.050000,-0.020521,0.032937,-0.050933,0.341414,0.561566,-0.050930,0.000000,
359902214,-0.394860,16.649095,1,-0.487854,0.009277,-0.007690,-0.872864,0.020000,-0.020000,-0.060000,0.007080,0.026161,-0.060544,-0.083017,-0.120839,-0.060438,0.000000,
359916413,-0.394860,16.649095,1,-0.487854,0.009277,-0.007690,-0.872864,0.050000,-0.020000,-0.040000,-0.008811,0.052156,-0.041261,-0.267086,-0.377877,-0.041472,0.000000,
359924030,0.251426,16.644451,1,-0.487854,0.009277,-0.007690,-0.872864,0.050000,-0.020000,-0.040000,-0.008811,0.052156,-0.041261,0.032354,0.123147,-0.041263,0.000000,
359932914,0.342658,16.649095,1,-0.487854,0.009277,-0.007690,-0.872864,0.030000,0.010000,-0.050000,-0.023800,0.019182,-0.050653,0.212969,0.354181,-0.050549,0.000000,
359945396,0.249885,16.653738,1,-0.487854,0.009277,-0.007690,-0.872864,0.030000,0.000000,-0.070000,-0.015109,0.023972,-0.070691,0.238802,0.379446,-0.070469,0.000000,
359953578,0.251426,16.644451,1,-0.487854,0.009277,-0.007690,-0.872864,0.050000,-0.010000,-0.050000,-0.017242,0.046692,-0.051214,0.249232,0.389718,-0.051426,0.000000,
359962719,0.158653,16.649095,1,-0.487854,0.009277,-0.007690,-0.872864,0.040000,0.000000,-0.020000,-0.020782,0.033611,-0.020942,0.200429,0.324227,-0.021278,0.000000,
359975275,0.342658,16.649095,1,-0.487854,0.009277,-0.007690,-0.872864,0.010000,-0.020000,-0.040000,0.012145,0.018095,-0.040313,0.287028,0.424736,-0.040103,0.000000,
359983497,0.067939,16.644451,1,-0.487854,0.009277,-0.007690,-0.872864,0.030000,-0.010000,-0.060000,-0.006677,0.029436,-0.060737,0.163320,0.237412,-0.060510,0.000000,
359992639,-0.027901,16.658381,1,-0.487854,0.009277,-0.007690,-0.872864,0.040000,-0.010000,-0.040000,-0.012090,0.038401,-0.040980,0.054921,0.098158,-0.041195,0.000000,
360002235,0.249885,16.653738,1,-0.487854,0.009277,-0.007690,-0.872864,0.040000,0.000000,-0.060000,-0.020434,0.032712,-0.060931,0.168595,0.236736,-0.060713,0.000000,
360015069,0.249885,16.653738,1,-0.487854,0.009277,-0.007690,-0.872864,0.030000,-0.010000,-0.060000,-0.006677,0.029436,-0.060737,0.218853,0.295238,-0.060737,0.000000,
360023437,0.435935,16.644451,1,-0.487854,0.009277,-0.007690,-0.872864,0.060000,0.010000,-0.050000,-0.039517,0.044728,-0.051364,0.347499,0.484824,-0.051467,0.000000,
360032578,0.342658,16.649095,1,-0.487854,0.009277,-0.007690,-0.872864,0.040000,-0.010000,-0.050000,-0.012003,0.038176,-0.050977,0.349128,0.480758,-0.050983,0.000000,
360045149,-0.396401,16.658381,1,-0.487854,0.009277,-0.007690,-0.872864,0.040000,-0.010000,-0.080000,-0.011743,0.037502,-0.080968,-0.077669,-0.058936,-0.080638,0.000000,
360053348,0.156089,16.658381,1,-0.487854,0.009277,-0.007690,-0.872864,0.040000,0.000000,-0.030000,-0.020695,0.033386,-0.030939,0.057601,0.142327,-0.031487,0.000000,
360062489,0.156089,16.658381,1,-0.487854,0.009277,-0.007690,-0.872864,0.050000,0.000000,-0.080000,-0.025500,0.040778,-0.081162,0.115855,0.213625,-0.080614,0.000000,
360075083,0.249885,16.653738,1,-0.487854,0.009277,-0.007690,-0.872864,0.030000,0.000000,-0.060000,-0.015195,0.024197,-0.060694,0.196340,0.309140,-0.060913,0.000000,
360083254,0.247840,16.663025,1,-0.487854,0.009277,-0.007690,-0.872864,0.020000,-0.010000,-0.050000,-0.001525,0.021146,-0.050503,0.228771,0.353152,-0.050618,0.000000,
360092506,0.065894,16.653738,1,-0.487854,0.009277,-0.007690,-0.872864,0.050000,-0.010000,-0.050000,-0.017242,0.046692,-0.051214,0.137833,0.233565,-0.051208,0.000000,
360105077,0.341117,16.658381,1,-0.487854,0.009277,-0.007690,-0.872864,0.050000,-0.010000,-0.060000,-0.017155,0.046467,-0.061211,0.258789,0.379982,-0.061101,0.000000,
360113280,-0.303124,16.653738,1,-0.487854,0.009277,-0.007690,-0.872864,0.060000,0.000000,-0.050000,-0.030999,0.049967,-0.051407,-0.064451,-0.106573,-0.051514,0.000000,
360122427,-0.303124,16.653738,1,-0.487854,0.009277,-0.007690,-0.872864,0.040000,0.000000,-0.070000,-0.020348,0.032487,-0.070928,-0.203468,-0.282524,-0.070714,0.000000,
360134997,0.525642,16.658381,1,-0.487854,0.009277,-0.007690,-0.872864,0.060000,-0.020000,-0.070000,-0.013790,0.059997,-0.071489,0.216233,0.242703,-0.071481,0.000000,
360143193,0.063835,16.663025,1,-0.487854,0.009277,-0.007690,-0.872864,0.040000,-0.010000,-0.050000,-0.012003,0.038176,-0.050977,0.129711,0.110432,-0.051203,0.000000,
360152443,0.158653,16.649095,1,-0.487854,0.009277,-0.007690,-0.872864,0.040000,0.010000,-0.060000,-0.028953,0.027473,-0.060887,0.147471,0.131138,-0.060780,0.000000,
360165036,-0.028924,16.667668,1,-0.487854,0.009277,-0.007690,-0.872864,0.060000,-0.010000,-0.070000,-0.022308,0.054757,-0.071445,0.046690,0.001987,-0.071328,0.000000,
360173239,0.156089,16.658381,1,-0.487854,0.009277,-0.007690,-0.872864,0.070000,0.000000,-0.060000,-0.036152,0.058258,-0.061642,0.110252,0.096597,-0.061748,0.000000,
360182376,0.341117,16.658381,1,-0.487854,0.009277,-0.007690,-0.872864,0.040000,0.000000,-0.080000,-0.020261,0.032263,-0.080925,0.244666,0.266147,-0.080713,0.000000,
