Code compiled on Dec 22 2025 at 15:34:53
﻿Simulation Mode (T/F),F
Airbrakes Enabled (T/F),F
Log File Name (max 7 chars uppercase),FLIGHT
Sim File Name (if applicable),Sim
Burnout Mass (kg),0.637
Air Density (kg/m^3),1.18
Rocket CD,0.71
Airbrake CD,0.8
Rocket Area (m^2),0.00243
Kalman Model Y STD,0.05
Kalman Model V STD,0.1
Kalman Model A STD,0.015
Kalman Measurement Y STD,0.26
Kalman Measurement A STD,0.013
Target Apogee (m),185
Launch Acceleration Threshold (m/s^2),20
Coast Lockout (s),1.5
KP (1/s),0.24
Altimeter lockout (s),90

Calibration point: 201.968888
Time (us),Altitude AGL (m),Temperature (deg C),Mode,IMU Quat W,IMU Quat X,IMU Quat Y,IMU Quat Z,IMU Local Acceleration X,IMU Local Acceleration Y,IMU Local Acceleration Z,IMU Global Acceleration x,IMU Global Acceleration y,IMU Global Acceleration z,State Estimation y,State Estimation v,State Estimation a,Servo deployment,
308215161,0.088424,15.924677,1,0.985535,0.020630,-0.044800,-0.161987,0.030000,0.020000,-0.050000,0.039403,0.010607,-0.046205,0.000000,0.000000,0.000000,0.000000,
308227816,-0.282258,15.933965,1,0.985596,0.020630,-0.044800,-0.161682,0.060000,0.030000,-0.080000,0.073726,0.011267,-0.073058,-0.120013,-0.000914,-0.072244,0.000000,
308234303,0.175063,15.947896,1,0.985596,0.020630,-0.044800,-0.161682,0.060000,0.030000,-0.080000,0.073726,0.011267,-0.073058,0.038782,0.001163,-0.073049,0.000000,
308242720,0.175063,15.947896,1,0.985657,0.020630,-0.044800,-0.161560,-0.020000,-0.090000,-0.150000,-0.033126,-0.074890,-0.155866,0.115257,0.001518,-0.154953,0.000000,
308254931,0.265304,15.952540,1,0.985657,0.020569,-0.044800,-0.161316,0.040000,0.100000,-0.110000,0.079818,0.084787,-0.100698,0.200150,0.003519,-0.101296,0.000000,
308262993,0.169937,15.966472,1,0.985718,0.020569,-0.044800,-0.161011,0.040000,0.100000,-0.110000,0.079767,0.084833,-0.100700,0.183051,0.001478,-0.100706,0.000000,
308272130,0.444747,15.971116,1,0.985779,0.020569,-0.044861,-0.160767,0.090000,0.160000,-0.030000,0.138256,0.123685,-0.013693,0.331439,0.012723,-0.014652,0.000000,
308284698,0.073547,15.980404,1,0.985779,0.020569,-0.044861,-0.160583,0.040000,-0.090000,0.060000,0.003745,-0.099589,0.058035,0.185287,-0.000459,0.057234,0.000000,
308292884,0.348876,15.985048,1,0.985779,0.020569,-0.044861,-0.160583,0.030000,-0.140000,0.120000,-0.027140,-0.145352,0.114176,0.278144,0.013503,0.113549,0.000000,
308302022,0.346816,15.994336,1,0.985779,0.020569,-0.044861,-0.160583,0.010000,-0.170000,0.220000,-0.064976,-0.170025,0.210403,0.317252,0.020667,0.209336,0.000000,
308311589,-0.114609,15.998980,1,0.985779,0.020569,-0.044861,-0.160583,0.010000,0.120000,0.240000,0.024402,0.104250,0.246245,0.072279,-0.013933,0.245838,0.000000,
308324456,-0.117676,16.008267,1,0.985779,0.020569,-0.044861,-0.160583,-0.030000,0.210000,-0.030000,0.040618,0.209329,-0.020767,-0.035849,-0.032821,-0.017829,0.000000,
308332850,0.159683,16.003624,1,0.985779,0.020569,-0.044861,-0.160645,0.060000,0.190000,-0.050000,0.121241,0.162226,-0.034403,0.075046,-0.007198,-0.034220,0.000000,
308341985,-0.119218,16.017555,1,0.985779,0.020569,-0.044861,-0.160828,0.020000,0.290000,-0.080000,0.117908,0.270464,-0.062029,-0.035425,-0.031346,-0.061722,0.000000,
308354571,0.062271,16.026843,1,0.985718,0.020569,-0.044861,-0.161072,0.030000,0.000000,0.030000,0.025471,-0.010365,0.032308,0.019756,-0.018444,0.031272,0.000000,
308362760,-0.305833,16.026843,1,0.985657,0.020569,-0.044800,-0.161316,-0.040000,-0.180000,-0.030000,-0.091818,-0.156903,-0.043022,-0.165686,-0.073145,-0.042203,0.000000,
308371996,-0.028474,16.022199,1,0.985596,0.020569,-0.044800,-0.161621,0.060000,-0.180000,-0.060000,0.005308,-0.188106,-0.064714,-0.088321,-0.053175,-0.064465,0.000000,
308384592,0.153533,16.031487,1,0.985596,0.020630,-0.044800,-0.161804,0.040000,-0.190000,-0.100000,-0.013005,-0.190105,-0.106729,0.048720,-0.016269,-0.106263,0.000000,
308392765,-0.031037,16.031487,1,0.985535,0.020630,-0.044800,-0.161987,-0.030000,-0.150000,-0.100000,-0.066422,-0.129751,-0.110239,0.003146,-0.033371,-0.110195,0.000000,
308402029,0.521652,16.031487,1,0.985535,0.020630,-0.044800,-0.162109,0.000000,-0.140000,-0.130000,-0.032126,-0.129125,-0.137094,0.298008,0.058836,-0.136797,0.000000,
308414596,0.059707,16.036131,1,0.985535,0.020691,-0.044800,-0.162170,-0.040000,-0.050000,-0.250000,-0.029872,-0.027904,-0.254812,0.162890,0.010754,-0.253511,0.000000,
308422784,-0.033082,16.040775,1,0.985535,0.020752,-0.044861,-0.162109,-0.030000,0.080000,-0.130000,0.009481,0.088795,-0.127380,0.051214,-0.037006,-0.128770,0.000000,
308431904,0.153533,16.031487,1,0.985535,0.020752,-0.044861,-0.161987,-0.070000,0.190000,0.150000,-0.020006,0.198390,0.154081,0.109180,-0.014087,0.150964,0.000000,
308444525,0.057662,16.045419,1,0.985596,0.020813,-0.044861,-0.161926,-0.020000,0.200000,0.200000,0.025559,0.190460,0.208499,0.079625,-0.022573,0.207865,0.000000,
308452712,0.242233,16.045419,1,0.985535,0.020813,-0.044861,-0.161987,0.050000,0.080000,0.200000,0.053535,0.054377,0.207550,0.172274,0.023527,0.207554,0.000000,
308461956,0.332977,16.050062,1,0.985535,0.020813,-0.044861,-0.162109,0.100000,-0.100000,0.060000,0.056865,-0.128386,0.062317,0.264136,0.062590,0.063918,0.000000,
308474540,0.148925,16.050062,1,0.985474,0.020813,-0.044861,-0.162292,0.080000,-0.220000,-0.050000,0.010262,-0.232636,-0.055451,0.199115,0.033552,-0.054135,0.000000,
308482708,0.517043,16.050062,1,0.985474,0.020813,-0.044861,-0.162476,0.100000,-0.190000,-0.170000,0.050010,-0.207518,-0.171567,0.381057,0.129764,-0.170273,0.000000,
308492004,-0.222260,16.059350,1,0.985474,0.020813,-0.044861,-0.162476,0.000000,-0.170000,-0.230000,-0.032230,-0.154795,-0.238327,0.037919,-0.033945,-0.237577,0.000000,
308504580,0.055099,16.054706,1,0.985474,0.020813,-0.044861,-0.162415,-0.070000,-0.010000,-0.140000,-0.055883,0.016778,-0.145587,0.047303,-0.031062,-0.146601,0.000000,
308512767,0.055099,16.054706,1,0.985535,0.020813,-0.044861,-0.162231,-0.060000,0.050000,-0.020000,-0.038802,0.067152,-0.022023,0.051507,-0.028585,-0.023396,0.000000,
308521905,0.517043,16.050062,1,0.985535,0.020813,-0.044861,-0.162048,-0.090000,0.130000,0.050000,-0.048389,0.150650,0.049628,0.317141,0.109492,0.048823,0.000000,
308534258,0.144302,16.068638,1,0.985596,0.020813,-0.044861,-0.161926,-0.040000,0.070000,0.100000,-0.025046,0.076461,0.100132,0.219616,0.059082,0.099567,0.000000,
308542659,0.239669,16.054706,1,0.985596,0.020752,-0.044800,-0.161743,-0.040000,0.020000,0.190000,-0.049461,0.026745,0.186918,0.231599,0.068003,0.185955,0.000000,
308551904,0.239669,16.054706,1,0.985596,0.020630,-0.044800,-0.161682,0.050000,-0.020000,0.230000,0.019003,-0.040986,0.231860,0.236851,0.072762,0.231354,0.000000,
308564480,-0.037705,16.059350,1,0.985657,0.020569,-0.044800,-0.161560,0.060000,-0.070000,0.230000,0.012621,-0.091503,0.229931,0.080525,-0.014301,0.229946,0.000000,
308572667,0.148925,16.050062,1,0.985657,0.020569,-0.044800,-0.161438,0.140000,-0.060000,0.060000,0.107459,-0.103199,0.067842,0.119606,0.013774,0.069628,0.000000,
308581910,-0.037705,16.059350,1,0.985657,0.020569,-0.044800,-0.161316,0.120000,0.020000,-0.040000,0.123394,-0.018396,-0.028904,0.029742,-0.041235,-0.027818,0.000000,
308591502,0.050475,16.073282,1,0.985657,0.020569,-0.044861,-0.161255,0.060000,0.080000,0.000000,0.081921,0.056588,0.009309,0.041211,-0.033851,0.008900,0.000000,
308604396,0.146362,16.059350,1,0.985657,0.020569,-0.044861,-0.161255,0.020000,0.140000,-0.010000,0.064075,0.126467,-0.000613,0.101097,0.004613,-0.000508,0.000000,
308612605,0.055099,16.054706,1,0.985657,0.020569,-0.044861,-0.161316,-0.010000,0.070000,-0.020000,0.014593,0.070018,-0.016869,0.074734,-0.016265,-0.016689,0.000000,
308621852,-0.040269,16.068638,1,0.985657,0.020630,-0.044861,-0.161499,0.000000,0.100000,0.010000,0.030700,0.094437,0.015467,0.008723,-0.060424,0.015113,0.000000,
308634198,-0.037705,16.059350,1,0.985596,0.020630,-0.044861,-0.161621,0.010000,0.090000,0.020000,0.036042,0.081494,0.025685,-0.018664,-0.078012,0.025569,0.000000,
308642592,0.421676,16.063994,1,0.985596,0.020630,-0.044861,-0.161804,-0.040000,0.050000,-0.020000,-0.019988,0.060694,-0.020413,0.233492,0.126248,-0.019907,0.000000,
308651835,0.053039,16.063994,1,0.985535,0.020691,-0.044861,-0.162048,0.050000,-0.110000,0.050000,0.007486,-0.121504,0.047756,0.131254,0.053261,0.047011,0.000000,
308664378,0.053039,16.063994,1,0.985535,0.020630,-0.044861,-0.162292,-0.080000,-0.270000,0.020000,-0.163237,-0.230330,-0.001546,0.086999,0.021367,-0.001011,0.000000,
308672569,-0.040269,16.068638,1,0.985474,0.020630,-0.044861,-0.162415,0.110000,-0.110000,0.040000,0.064941,-0.140562,0.042718,0.014050,-0.041298,0.042236,0.000000,
308681794,-0.133057,16.073282,1,0.985474,0.020630,-0.044861,-0.162476,0.060000,-0.130000,0.040000,0.011396,-0.143394,0.037527,-0.070670,-0.103622,0.037579,0.000000,
308694365,-0.133057,16.073282,1,0.985474,0.020630,-0.044861,-0.162537,0.100000,0.110000,-0.020000,0.131251,0.072396,-0.005654,-0.107829,-0.130353,-0.005178,0.000000,
308702564,0.050475,16.073282,1,0.985474,0.020630,-0.044861,-0.162598,0.020000,0.050000,-0.020000,0.036696,0.041389,-0.015506,-0.017871,-0.048095,-0.015392,0.000000,
308711719,-0.594468,16.077926,1,0.985413,0.020630,-0.044861,-0.162659,-0.030000,0.010000,-0.010000,-0.024153,0.019396,-0.011850,-0.349077,-0.306174,-0.011889,0.000000,
308724287,0.237609,16.063994,1,0.985413,0.020630,-0.044861,-0.162659,-0.010000,0.000000,-0.010000,-0.008479,0.003485,-0.010768,-0.015530,-0.044594,-0.010781,0.000000,
308732456,0.419631,16.073282,1,0.985413,0.020630,-0.044861,-0.162659,-0.030000,0.020000,0.010000,-0.022869,0.028337,0.008605,0.234488,0.192066,0.008392,0.000000,
308741706,-0.317628,16.073282,1,0.985413,0.020630,-0.044861,-0.162659,0.020000,0.060000,0.010000,0.037033,0.050065,0.014900,-0.080648,-0.065291,0.014829,0.000000,
308754278,0.419631,16.073282,1,0.985413,0.020630,-0.044861,-0.162781,0.040000,0.020000,0.000000,0.044098,0.006017,0.004373,0.206458,0.168786,0.004488,0.000000,
308762476,0.421676,16.063994,1,0.985413,0.020630,-0.044861,-0.162964,0.040000,-0.060000,0.020000,0.016652,-0.070204,0.019853,0.331766,0.291101,0.019684,0.000000,
308771646,0.419631,16.073282,1,0.985352,0.020630,-0.044861,-0.163147,0.050000,-0.080000,0.010000,0.020613,-0.092102,0.009612,0.384897,0.333956,0.009723,0.000000,
308784209,0.235046,16.073282,1,0.985352,0.020630,-0.044861,-0.163391,0.020000,-0.090000,0.030000,-0.012816,-0.092375,0.026509,0.302804,0.261688,0.026324,0.000000,
308792399,0.144302,16.068638,1,0.985291,0.020630,-0.044861,-0.163513,-0.040000,-0.120000,-0.020000,-0.074241,-0.099999,-0.029808,0.213627,0.168212,-0.029189,0.000000,
308801645,0.144302,16.068638,1,0.985291,0.020630,-0.044861,-0.163513,-0.030000,0.010000,0.000000,-0.025071,0.019179,-0.001896,0.175346,0.133243,-0.002197,0.000000,
308814207,-0.411439,16.077926,1,0.985291,0.020630,-0.044861,-0.163513,-0.050000,0.030000,0.030000,-0.040369,0.043794,0.027431,-0.161108,-0.162152,0.027104,0.000000,
308822392,0.235046,16.073282,1,0.985291,0.020630,-0.044800,-0.163574,-0.030000,-0.010000,0.040000,-0.035280,-0.000771,0.036806,0.065946,0.079587,0.036699,0.000000,
308831656,0.235046,16.073282,1,0.985291,0.020630,-0.044800,-0.163574,-0.210000,-0.060000,-0.070000,-0.210496,0.013160,-0.090100,0.163898,0.166922,-0.088703,0.000000,
308841244,0.328872,16.068638,1,0.985291,0.020630,-0.044800,-0.163574,-0.030000,-0.080000,-0.050000,-0.049162,-0.064625,-0.056627,0.260362,0.252359,-0.056981,0.000000,
308854056,0.142257,16.077926,1,0.985291,0.020630,-0.044800,-0.163574,-0.060000,-0.070000,0.030000,-0.081833,-0.047523,0.021090,0.195446,0.189468,0.020230,0.000000,
308862440,0.605743,16.063994,1,0.985291,0.020630,-0.044861,-0.163513,0.100000,-0.040000,0.030000,0.078581,-0.071013,0.035806,0.433921,0.455217,0.035635,0.000000,
308871569,0.233001,16.082569,1,0.985352,0.020630,-0.044861,-0.163391,0.090000,-0.050000,0.010000,0.067874,-0.076694,0.014535,0.322453,0.343987,0.014768,0.000000,
308884214,0.603698,16.073282,1,0.985352,0.020630,-0.044861,-0.163208,0.140000,-0.030000,-0.010000,0.123336,-0.073404,-0.000176,0.489096,0.496496,-0.000011,0.000000,
308892414,0.235046,16.073282,1,0.985413,0.020630,-0.044861,-0.162964,-0.090000,-0.070000,0.010000,-0.108161,-0.037411,-0.001270,0.346502,0.329860,-0.001256,0.000000,
308901550,0.048431,16.082569,1,0.985413,0.020630,-0.044861,-0.162781,-0.010000,0.020000,-0.060000,0.002657,0.023713,-0.059419,0.177977,0.162625,-0.058778,0.000000,
308914116,-0.228928,16.087213,1,0.985474,0.020569,-0.044861,-0.162537,0.000000,0.130000,-0.070000,0.048063,0.124838,-0.062493,-0.054843,-0.062983,-0.062452,0.000000,
308922302,0.328872,16.068638,1,0.985474,0.020569,-0.044861,-0.162415,-0.080000,0.010000,-0.180000,-0.055157,0.039895,-0.185111,0.166219,0.191910,-0.183759,0.000000,
308931535,0.419631,16.073282,1,0.985535,0.020569,-0.044861,-0.162292,-0.060000,-0.030000,-0.220000,-0.045217,-0.003374,-0.225486,0.313875,0.334493,-0.225026,0.000000,
308944107,0.414504,16.091857,1,0.985535,0.020569,-0.044861,-0.162170,0.020000,0.000000,-0.090000,0.027426,-0.004091,-0.087927,0.376188,0.390570,-0.089437,0.000000,
308952306,-0.228928,16.087213,1,0.985535,0.020569,-0.044861,-0.162048,0.090000,-0.050000,-0.140000,0.082345,-0.072604,-0.134714,0.029767,-0.025097,-0.134215,0.000000,
308961568,0.233001,16.082569,1,0.985596,0.020569,-0.044861,-0.161926,0.090000,-0.050000,-0.250000,0.092824,-0.069724,-0.244177,0.146581,0.091505,-0.242965,0.000000,
308974129,0.048431,16.082569,1,0.985596,0.020569,-0.044861,-0.161804,0.190000,-0.010000,-0.200000,0.195133,-0.065213,-0.184040,0.091005,0.032038,-0.184689,0.000000,
308982317,0.142257,16.077926,1,0.985596,0.020569,-0.044861,-0.161804,0.190000,0.040000,-0.070000,0.198627,-0.021257,-0.051920,0.120890,0.067491,-0.053383,0.000000,
308991560,0.419631,16.073282,1,0.985596,0.020569,-0.044861,-0.161804,0.090000,0.080000,0.350000,0.077013,0.037762,0.360060,0.293650,0.249078,0.355504,0.000000,
309004136,-0.228928,16.087213,1,0.985596,0.020569,-0.044861,-0.161865,-0.040000,0.090000,0.460000,-0.052934,0.086074,0.459445,-0.005238,-0.055178,0.458299,0.000000,
309012335,0.142257,16.077926,1,0.985535,0.020630,-0.044861,-0.162048,-0.110000,-0.040000,0.240000,-0.139309,-0.008796,0.227630,0.079607,0.051957,0.230172,0.000000,
309021491,0.601135,16.082569,1,0.985535,0.020630,-0.044861,-0.162170,-0.050000,-0.040000,0.040000,-0.063685,-0.022832,0.033510,0.380640,0.369649,0.035677,0.000000,
309034058,0.417068,16.082569,1,0.985535,0.020630,-0.044861,-0.162231,-0.050000,0.010000,0.040000,-0.047792,0.024502,0.036271,0.406349,0.392009,0.036264,0.000000,
309042426,0.139694,16.087213,1,0.985474,0.020630,-0.044861,-0.162354,-0.030000,-0.020000,-0.020000,-0.032758,-0.008752,-0.023459,0.255354,0.198477,-0.022800,0.000000,
309051569,0.139694,16.087213,1,0.985474,0.020630,-0.044861,-0.162415,0.020000,-0.060000,0.020000,-0.002134,-0.063745,0.018223,0.190480,0.126380,0.017771,0.000000,
309064160,0.142257,16.077926,1,0.985474,0.020630,-0.044861,-0.162476,0.070000,-0.140000,0.050000,0.016693,-0.156339,0.047743,0.164182,0.097403,0.047413,0.000000,
309072337,-0.133057,16.073282,1,0.985474,0.020630,-0.044861,-0.162476,0.090000,-0.090000,0.140000,0.042915,-0.117811,0.141700,-0.007015,-0.120948,0.140661,0.000000,
309081473,0.417068,16.082569,1,0.985474,0.020630,-0.044861,-0.162476,0.080000,-0.040000,0.100000,0.053207,-0.066229,0.103840,0.236413,0.146440,0.104246,0.000000,
309094087,-0.135621,16.082569,1,0.985474,0.020630,-0.044861,-0.162415,0.110000,0.020000,0.030000,0.107266,-0.017271,0.039947,0.023030,-0.083675,0.040656,0.000000,
309102257,0.233001,16.082569,1,0.985474,0.020630,-0.044861,-0.162415,0.090000,0.150000,0.430000,0.091727,0.101764,0.443543,0.143898,0.077296,0.439103,0.000000,
309111522,0.601135,16.082569,1,0.985474,0.020630,-0.044861,-0.162537,-0.050000,0.110000,0.220000,-0.033049,0.114467,0.220918,0.408371,0.370664,0.223323,0.000000,
309121129,-0.044877,16.087213,1,0.985413,0.020630,-0.044861,-0.162720,0.000000,0.070000,0.060000,0.016611,0.064670,0.063575,0.150443,0.084120,0.065336,0.000000,
309133543,-0.135621,16.082569,1,0.985413,0.020691,-0.044861,-0.162964,-0.100000,-0.010000,0.020000,-0.099382,0.022320,0.011181,-0.014157,-0.100907,0.011778,0.000000,
309142080,0.048431,16.082569,1,0.985352,0.020691,-0.044861,-0.163208,-0.020000,-0.070000,-0.310000,-0.011739,-0.051640,-0.313999,0.021228,-0.055885,-0.310409,0.000000,
309151343,-0.322236,16.091857,1,0.985291,0.020691,-0.044861,-0.163452,-0.030000,-0.120000,-0.400000,-0.028639,-0.093324,-0.407149,-0.177606,-0.287273,-0.406083,0.000000,
309171789,0.507812,16.087213,1,0.985291,0.020691,-0.044861,-0.163757,0.040000,-0.040000,-0.030000,0.027715,-0.050020,-0.028807,0.217011,0.158055,-0.032965,0.000000,
309181263,0.235046,16.073282,1,0.985229,0.020691,-0.044861,-0.163940,0.150000,-0.040000,0.090000,0.119920,-0.088895,0.099583,0.229141,0.178336,0.098123,0.000000,
309190971,-0.133057,16.073282,1,0.985229,0.020752,-0.044800,-0.164124,0.180000,-0.060000,-0.010000,0.151239,-0.115001,0.001377,0.020077,-0.120643,0.002443,0.000000,
309203820,0.144302,16.068638,1,0.985168,0.020752,-0.044800,-0.164307,0.110000,0.000000,-0.030000,0.106472,-0.035031,-0.020894,0.090791,-0.029958,-0.020637,0.000000,
309212186,-0.224824,16.068638,1,0.985168,0.020752,-0.044800,-0.164429,0.060000,-0.070000,-0.060000,0.039672,-0.084136,-0.058714,-0.092686,-0.287202,-0.058295,0.000000,
309221438,0.419631,16.073282,1,0.985168,0.020752,-0.044800,-0.164429,-0.100000,-0.060000,-0.080000,-0.105911,-0.022028,-0.091092,0.200617,0.058578,-0.090730,0.000000,
309234076,-0.228928,16.087213,1,0.985168,0.020752,-0.044800,-0.164429,-0.100000,-0.090000,-0.130000,-0.110820,-0.049072,-0.142517,-0.047516,-0.224488,-0.141946,0.000000,
309242266,0.509857,16.077926,1,0.985168,0.020752,-0.044800,-0.164429,-0.100000,-0.090000,-0.090000,-0.114624,-0.050118,-0.102712,0.273579,0.208292,-0.103144,0.000000,
309251398,0.419631,16.073282,1,0.985168,0.020752,-0.044800,-0.164368,-0.020000,-0.090000,-0.030000,-0.044966,-0.077760,-0.036488,0.359770,0.304104,-0.037223,0.000000,
309263969,-0.042313,16.077926,1,0.985168,0.020752,-0.044800,-0.164246,0.000000,0.000000,0.050000,-0.004754,-0.001309,0.049756,0.130775,0.044800,0.048798,0.000000,
309272154,0.325805,16.077926,1,0.985168,0.020752,-0.044800,-0.164185,0.010000,0.000000,0.070000,0.002765,-0.005086,0.070473,0.244125,0.197009,0.070234,0.000000,
309281375,-0.135621,16.082569,1,0.985229,0.020691,-0.044800,-0.164062,0.060000,0.090000,0.110000,0.075000,0.062702,0.119346,0.026756,-0.053110,0.118805,0.000000,
309293945,0.509857,16.077926,1,0.985229,0.020691,-0.044800,-0.163940,0.210000,0.250000,0.130000,0.265807,0.164730,0.160345,0.305925,0.265501,0.159887,0.000000,
309302144,0.328872,16.068638,1,0.985229,0.020691,-0.044800,-0.163940,0.120000,-0.030000,0.010000,0.102482,-0.067610,0.018067,0.321399,0.283689,0.019629,0.000000,
309311388,0.048431,16.082569,1,0.985229,0.020752,-0.044800,-0.164062,0.060000,0.010000,-0.020000,0.061645,-0.009531,-0.014459,0.166422,0.100868,-0.014083,0.000000,
309323980,0.603698,16.073282,1,0.985229,0.020691,-0.044678,-0.164185,-0.090000,-0.040000,-0.020000,-0.095759,-0.008004,-0.029432,0.421049,0.390509,-0.029263,0.000000,
309332145,0.324264,16.087213,1,0.985168,0.020630,-0.044617,-0.164307,-0.160000,0.090000,0.070000,-0.128381,0.135338,0.061659,0.368143,0.314025,0.060657,0.000000,
309341282,-0.135621,16.082569,1,0.985168,0.020569,-0.044617,-0.164246,-0.130000,-0.250000,-0.010000,-0.201968,-0.193732,-0.034298,0.080154,-0.026229,-0.033251,0.000000,
309353855,0.046890,16.091857,1,0.985229,0.020569,-0.044678,-0.164124,-0.050000,-0.170000,-0.140000,-0.088502,-0.140815,-0.152770,0.060539,-0.050256,-0.151453,0.000000,
309362058,0.325805,16.077926,1,0.985229,0.020508,-0.044739,-0.163940,0.030000,-0.160000,-0.090000,-0.014586,-0.158694,-0.095934,0.213894,0.161158,-0.096545,0.000000,
309371321,0.509857,16.077926,1,0.985291,0.020630,-0.044739,-0.163818,-0.280000,0.720000,0.100000,-0.042243,0.769049,0.116546,0.386328,0.363836,0.114198,0.000000,
309383933,0.414504,16.091857,1,0.985229,0.020630,-0.044739,-0.164001,0.100000,-0.390000,-0.240000,-0.008310,-0.394955,-0.252273,0.407229,0.379706,-0.248234,0.000000,
309392120,0.139694,16.087213,1,0.985229,0.020752,-0.044678,-0.164124,0.430000,0.200000,0.080000,0.461839,0.047096,0.125649,0.255205,0.163975,0.121529,0.000000,
309401238,0.046890,16.091857,1,0.985168,0.020752,-0.044678,-0.164185,-0.130000,-0.040000,0.110000,-0.145771,0.001603,0.096686,0.136387,0.021640,0.096959,0.000000,
309410838,-0.135621,16.082569,1,0.985168,0.020752,-0.044739,-0.164368,-0.100000,-0.200000,0.090000,-0.167144,-0.158806,0.070310,-0.020511,-0.161379,0.070604,0.000000,
309423647,0.230438,16.091857,1,0.985168,0.020752,-0.044800,-0.164429,0.330000,0.260000,0.110000,0.384122,0.135313,0.150802,0.123029,0.014104,0.149919,0.000000,
309432028,-0.044877,16.087213,1,0.985168,0.020813,-0.044800,-0.164490,0.320000,-0.300000,-0.050000,0.209484,-0.386501,-0.040424,0.025679,-0.125719,-0.038327,0.000000,
309441319,0.046890,16.091857,1,0.985107,0.020813,-0.044861,-0.164673,0.150000,0.090000,0.060000,0.164578,0.034521,0.076956,0.036777,-0.109998,0.075686,0.000000,
309453889,-0.137681,16.091857,1,0.985046,0.020813,-0.044800,-0.164917,-0.110000,0.040000,0.220000,-0.111581,0.067964,0.212204,-0.065786,-0.228509,0.210700,0.000000,
309462076,-0.042313,16.077926,1,0.985046,0.020813,-0.044739,-0.165222,-0.200000,0.110000,0.080000,-0.160281,0.167275,0.069495,-0.054037,-0.208581,0.071051,0.000000,
309471214,-0.046937,16.096501,1,0.984985,0.020874,-0.044739,-0.165588,0.030000,-0.040000,-0.060000,0.020964,-0.046035,-0.059508,-0.051843,-0.204159,-0.058070,0.000000,
309483798,0.048431,16.082569,1,0.984924,0.020874,-0.044739,-0.165894,-0.060000,0.120000,0.290000,-0.045033,0.125390,0.290430,0.003754,-0.131628,0.286589,0.000000,
309491984,-0.506806,16.091857,1,0.984863,0.020874,-0.044739,-0.166138,0.020000,0.190000,0.220000,0.059725,0.166988,0.231188,-0.293496,-0.551303,0.231798,0.000000,
309501227,-0.137681,16.091857,1,0.984802,0.020935,-0.044800,-0.166504,-0.070000,0.020000,0.050000,-0.064077,0.040645,0.045190,-0.208547,-0.441577,0.047246,0.000000,
309513816,0.233001,16.082569,1,0.984741,0.020935,-0.044800,-0.166870,0.130000,-0.070000,0.110000,0.088890,-0.111899,0.116091,0.042010,-0.133384,0.115333,0.000000,
309521980,-0.137681,16.091857,1,0.984680,0.020935,-0.044800,-0.167236,0.090000,-0.200000,-0.070000,0.025776,-0.216611,-0.073590,-0.063340,-0.283510,-0.071508,0.000000,
309531170,-0.413499,16.087213,1,0.984619,0.020935,-0.044800,-0.167480,0.230000,-0.230000,-0.040000,0.144559,-0.292134,-0.034060,-0.268304,-0.530743,-0.034472,0.000000,
309543731,-0.044877,16.087213,1,0.984619,0.020996,-0.044800,-0.167725,0.050000,-0.110000,-0.060000,0.016577,-0.118744,-0.061849,-0.145385,-0.375996,-0.061547,0.000000,
309551933,0.324264,16.087213,1,0.984558,0.021118,-0.044800,-0.167847,0.120000,-0.080000,-0.050000,0.091233,-0.113982,-0.044549,0.124049,0.015464,-0.044737,0.000000,
309561177,-0.046937,16.096501,1,0.984558,0.021179,-0.044800,-0.167969,0.060000,0.040000,-0.270000,0.095267,0.024945,-0.261538,0.025348,-0.108264,-0.259149,0.000000,
309573736,0.046890,16.091857,1,0.984497,0.021301,-0.044800,-0.168091,0.070000,-0.020000,-0.170000,0.075395,-0.037583,-0.164630,0.036473,-0.095210,-0.165672,0.000000,
309581924,-0.137681,16.091857,1,0.984497,0.021301,-0.044678,-0.168213,-0.050000,0.050000,-0.170000,-0.014332,0.068356,-0.170359,-0.065381,-0.242767,-0.170307,0.000000,
309591177,-0.137681,16.091857,1,0.984497,0.021301,-0.044678,-0.168213,-0.070000,-0.040000,-0.030000,-0.076077,-0.013575,-0.037788,-0.109423,-0.294639,-0.039249,0.000000,
309603740,0.233001,16.082569,1,0.984497,0.021301,-0.044556,-0.168213,-0.180000,-0.020000,-0.150000,-0.161451,0.045152,-0.164908,0.085544,-0.055090,-0.163524,0.000000,
309611938,0.139694,16.087213,1,0.984497,0.021301,-0.044556,-0.168213,-0.080000,-0.020000,0.010000,-0.082690,0.007529,0.002368,0.116522,-0.009404,0.000539,0.000000,
309621180,0.139694,16.087213,1,0.984497,0.021301,-0.044556,-0.168213,-0.160000,0.030000,0.120000,-0.151818,0.078338,0.108232,0.129836,0.008189,0.107046,0.000000,
309633629,0.046890,16.091857,1,0.984497,0.021301,-0.044556,-0.168213,-0.070000,-0.080000,0.030000,-0.094953,-0.052891,0.019660,0.081815,-0.050310,0.020623,0.000000,
309641996,0.691879,16.087213,1,0.984497,0.021301,-0.044495,-0.168274,-0.010000,-0.030000,0.290000,-0.046763,-0.032762,0.286077,0.435543,0.465567,0.283151,0.000000,
309651153,0.230438,16.091857,1,0.984497,0.021301,-0.044495,-0.168335,0.020000,0.050000,0.340000,0.003039,0.031287,0.342800,0.321222,0.320182,0.342143,0.000000,
309663824,0.137634,16.096501,1,0.984497,0.021301,-0.044495,-0.168457,0.060000,-0.020000,0.130000,0.037439,-0.042366,0.133055,0.218741,0.191624,0.135359,0.000000,
309672044,-0.044877,16.087213,1,0.984497,0.021301,-0.044495,-0.168457,0.080000,0.010000,-0.300000,0.106877,-0.009178,-0.291536,0.067238,-0.035793,-0.286832,0.000000,
309681179,0.507812,16.087213,1,0.984497,0.021301,-0.044495,-0.168335,0.100000,-0.130000,-0.280000,0.077633,-0.148300,-0.277993,0.321638,0.280648,-0.278091,0.000000,
309690769,0.505248,16.096501,1,0.984497,0.021301,-0.044556,-0.168213,0.080000,-0.190000,-0.300000,0.041055,-0.197638,-0.302909,0.430473,0.408069,-0.302635,0.000000,
309703579,-0.416062,16.096501,1,0.984558,0.021301,-0.044556,-0.167969,-0.030000,0.030000,0.030000,-0.021169,0.037450,0.029144,-0.055996,-0.204898,0.025488,0.000000,
309711960,0.046890,16.091857,1,0.984558,0.021301,-0.044556,-0.167847,-0.030000,0.020000,0.050000,-0.026363,0.027478,0.048477,0.002078,-0.115113,0.048223,0.000000,
309721098,0.321182,16.096501,1,0.984619,0.021301,-0.044556,-0.167725,0.040000,0.010000,0.010000,0.039926,-0.004129,0.013744,0.185639,0.120855,0.014124,0.000000,
309733585,-0.046937,16.096501,1,0.984619,0.021301,-0.044556,-0.167725,0.020000,0.000000,0.000000,0.018795,-0.006644,0.001612,0.052156,-0.046128,0.001750,0.000000,
309741968,0.414504,16.091857,1,0.984619,0.021301,-0.044556,-0.167725,0.110000,0.170000,0.010000,0.158252,0.123470,0.028489,0.262195,0.263337,0.028194,0.000000,
309751095,0.137634,16.096501,1,0.984619,0.021301,-0.044556,-0.167725,0.080000,-0.080000,-0.010000,0.049859,-0.101731,-0.008055,0.192554,0.171877,-0.007656,0.000000,
309763667,0.414504,16.091857,1,0.984619,0.021301,-0.044617,-0.167725,0.200000,-0.030000,-0.010000,0.179050,-0.094453,0.004485,0.323541,0.330934,0.004351,0.000000,
309771852,0.139694,16.087213,1,0.984619,0.021301,-0.044556,-0.167725,0.180000,-0.100000,0.030000,0.133472,-0.154887,0.038671,0.219500,0.173554,0.038293,0.000000,
309780987,0.599075,16.091857,1,0.984619,0.021240,-0.044556,-0.167664,0.130000,-0.060000,0.050000,0.097735,-0.101085,0.056831,0.440572,0.450374,0.056626,0.000000,
309793565,0.043823,16.101145,1,0.984619,0.021240,-0.044495,-0.167542,0.180000,-0.080000,0.050000,0.138202,-0.136510,0.059709,0.215972,0.167287,0.059675,0.000000,
309801753,-0.044877,16.087213,1,0.984619,0.021240,-0.044373,-0.167480,0.090000,-0.080000,0.030000,0.055528,-0.106101,0.032543,0.065878,-0.056548,0.032842,0.000000,
309810997,-0.137681,16.091857,1,0.984680,0.021301,-0.044250,-0.167480,-1.020000,-0.030000,-0.060000,-0.962966,0.311687,-0.143024,-0.052378,-0.206381,-0.141086,0.000000,
309823580,0.783660,16.091857,1,0.984680,0.021301,-0.044128,-0.167358,-0.490000,0.130000,-0.170000,-0.402055,0.289640,-0.200900,0.430374,0.394605,-0.200241,0.000000,
309831772,-0.228928,16.087213,1,0.984680,0.021301,-0.044189,-0.167175,-0.160000,-0.050000,0.150000,-0.180921,0.001742,0.133657,0.050717,-0.173470,0.129978,0.000000,
309841018,-0.324296,16.101145,1,0.984741,0.021301,-0.044312,-0.166992,-0.340000,0.400000,0.010000,-0.189846,0.489520,0.005399,-0.167793,-0.448049,0.006772,0.000000,
309853598,0.507812,16.087213,1,0.984741,0.021240,-0.044434,-0.166870,0.510000,-0.140000,-0.080000,0.441405,-0.298490,-0.046529,0.218821,0.040491,-0.045942,0.000000,
309861787,0.321182,16.096501,1,0.984741,0.021179,-0.044495,-0.166809,0.050000,-0.070000,0.140000,0.010897,-0.086324,0.139389,0.278607,0.130203,0.137347,0.000000,
309870920,0.319656,16.105789,1,0.984741,0.021057,-0.044495,-0.166992,-0.050000,0.260000,-0.040000,0.041797,0.262871,-0.029190,0.303535,0.160056,-0.027355,0.000000,
309883525,-0.048981,16.105789,1,0.984680,0.020935,-0.044556,-0.167114,0.040000,0.010000,-0.060000,0.046564,-0.002226,-0.055918,0.100909,-0.094618,-0.055603,0.000000,
309891691,0.505248,16.096501,1,0.984680,0.020813,-0.044617,-0.167175,-0.080000,0.080000,-0.080000,-0.041434,0.104032,-0.081612,0.334962,0.254854,-0.081326,0.000000,
309900956,0.230438,16.091857,1,0.984680,0.020752,-0.044617,-0.167297,0.100000,-0.280000,0.060000,-0.003417,-0.298774,0.052179,0.276866,0.178639,0.050708,0.000000,
309913447,-0.140244,16.101145,1,0.984680,0.020630,-0.044739,-0.167297,-0.070000,0.120000,0.070000,-0.033137,0.134577,0.070648,0.036931,-0.123735,0.070428,0.000000,
309921841,0.230438,16.091857,1,0.984680,0.020569,-0.044800,-0.167419,0.150000,-0.030000,0.040000,0.127349,-0.079046,0.050341,0.148307,0.044027,0.050563,0.000000,
309930981,-0.044877,16.087213,1,0.984619,0.020569,-0.044922,-0.167664,0.770000,-0.120000,0.100000,0.674667,-0.371349,0.155648,0.036947,-0.098250,0.154490,0.000000,
309940615,-0.231492,16.096501,1,0.984558,0.020508,-0.045044,-0.167969,-0.060000,-0.110000,0.090000,-0.101153,-0.086017,0.078544,-0.119286,-0.292498,0.079381,0.000000,
309953490,0.691879,16.087213,1,0.984497,0.020508,-0.044983,-0.168396,0.300000,0.030000,0.170000,0.275432,-0.076040,0.195334,0.348455,0.311639,0.194056,0.000000,
309961657,0.137634,16.096501,1,0.984375,0.020569,-0.044983,-0.168884,0.290000,-0.230000,-0.090000,0.204832,-0.311367,-0.078700,0.228441,0.123521,-0.075695,0.000000,
309970902,-0.322236,16.091857,1,0.984314,0.020569,-0.044983,-0.169495,-0.050000,-0.360000,-0.030000,-0.163515,-0.321477,-0.053999,-0.089072,-0.287275,-0.054238,0.000000,
309983501,0.414504,16.091857,1,0.984192,0.020691,-0.044922,-0.169983,0.320000,-0.300000,-0.030000,0.203260,-0.389307,-0.020609,0.199784,0.081338,-0.020979,0.000000,
309991690,0.324264,16.087213,1,0.984131,0.020813,-0.044861,-0.170471,0.110000,-0.300000,0.000000,0.003065,-0.319418,-0.007946,0.272766,0.190035,-0.008090,0.000000,
310000942,0.043823,16.101145,1,0.984070,0.020935,-0.044800,-0.170654,-0.050000,-0.040000,0.050000,-0.065013,-0.022043,0.043444,0.142075,0.021037,0.042876,0.000000,
310013556,-0.233552,16.105789,1,0.984070,0.021118,-0.044739,-0.170654,-0.070000,0.390000,-0.010000,0.065563,0.390842,0.006555,-0.075811,-0.253506,0.006955,0.000000,
310021724,-0.137681,16.091857,1,0.984070,0.021179,-0.044678,-0.170898,0.090000,-0.060000,0.050000,0.059557,-0.088204,0.053601,-0.113822,-0.307168,0.053087,0.000000,
310030860,0.230438,16.091857,1,0.984009,0.021301,-0.044556,-0.171143,-0.770000,0.080000,-0.060000,-0.689345,0.337648,-0.117038,0.082499,-0.053580,-0.115163,0.000000,
310043438,0.319656,16.105789,1,0.983948,0.021301,-0.044434,-0.171326,-0.460000,0.180000,-0.080000,-0.363254,0.327365,-0.106191,0.219512,0.117361,-0.106290,0.000000,
310051627,0.414504,16.091857,1,0.983948,0.021301,-0.044434,-0.171326,0.060000,0.240000,0.110000,0.126281,0.202414,0.127989,0.333744,0.288392,0.125407,0.000000,
310060859,-0.137681,16.091857,1,0.983948,0.021301,-0.044556,-0.171326,0.030000,0.090000,0.030000,0.055443,0.073664,0.037412,0.063686,-0.060113,0.038382,0.000000,
310073460,0.505248,16.096501,1,0.983948,0.021301,-0.044617,-0.171509,0.210000,-0.170000,0.030000,0.136902,-0.231920,0.037029,0.319369,0.263275,0.037044,0.000000,
310081659,0.043823,16.101145,1,0.983887,0.021301,-0.044617,-0.171692,0.100000,-0.240000,0.320000,-0.017357,-0.268118,0.312747,0.161454,0.024646,0.309709,0.000000,
310090795,0.137634,16.096501,1,0.983887,0.021301,-0.044617,-0.171875,-0.080000,-0.290000,0.280000,-0.199118,-0.252836,0.255590,0.147910,0.009297,0.256186,0.000000,
310103374,-0.048981,16.105789,1,0.983826,0.021362,-0.044617,-0.171997,0.030000,-0.390000,0.100000,-0.112653,-0.379448,0.079545,0.033708,-0.133133,0.081492,0.000000,
310111659,0.599075,16.091857,1,0.983887,0.021484,-0.044617,-0.171936,0.040000,-0.080000,-0.130000,0.022937,-0.085305,-0.130756,0.361077,0.359838,-0.128417,0.000000,
310120786,-0.231492,16.096501,1,0.983887,0.021606,-0.044678,-0.171753,0.090000,0.010000,0.010000,0.086738,-0.021462,0.017774,0.021528,-0.082018,0.016163,0.000000,
310133369,0.596511,16.101145,1,0.983948,0.021606,-0.044678,-0.171570,-0.070000,0.620000,-0.060000,0.148255,0.608321,-0.029473,0.354381,0.337369,-0.028970,0.000000,
310141555,0.230438,16.091857,1,0.983948,0.021545,-0.044617,-0.171570,-0.220000,0.020000,0.090000,-0.208025,0.091068,0.073023,0.285142,0.229492,0.071899,0.000000,
310150799,-0.140244,16.101145,1,0.983887,0.021484,-0.044556,-0.171692,-0.250000,-0.180000,0.050000,-0.299490,-0.085629,0.019317,0.041154,-0.086181,0.019897,0.000000,
310171102,0.412444,16.101145,1,0.983887,0.021484,-0.044617,-0.171692,0.210000,0.040000,0.030000,0.207365,-0.034555,0.049045,0.257163,0.187401,0.048723,0.000000,
310180513,0.233001,16.082569,1,0.983887,0.021484,-0.044617,-0.171753,0.200000,-0.070000,0.100000,0.154363,-0.136478,0.111560,0.244629,0.159360,0.110868,0.000000,
310190225,0.414504,16.091857,1,0.983887,0.021484,-0.044617,-0.171936,0.100000,-0.010000,0.020000,0.088422,-0.043963,0.027366,0.345356,0.316810,0.028287,0.000000,
310200179,0.601135,16.082569,1,0.983826,0.021484,-0.044617,-0.172180,0.050000,-0.250000,-0.060000,-0.031671,-0.250367,-0.070096,0.497169,0.526145,-0.069011,0.000000,
310214361,0.324264,16.087213,1,0.983826,0.021484,-0.044617,-0.172302,-0.010000,0.120000,0.030000,0.028231,0.115367,0.035967,0.403713,0.390423,0.034810,0.000000,
310221945,0.230438,16.091857,1,0.983826,0.021484,-0.044617,-0.172302,-0.010000,0.120000,0.030000,0.028231,0.115367,0.035967,0.305721,0.225588,0.035954,0.000000,
310230851,0.324264,16.087213,1,0.983826,0.021484,-0.044617,-0.172241,-0.180000,0.110000,0.020000,-0.133438,0.164183,0.011773,0.318455,0.239403,0.012039,0.000000,
310243314,0.324264,16.087213,1,0.983826,0.021545,-0.044556,-0.172180,-0.170000,0.080000,-0.010000,-0.131345,0.133374,-0.018975,0.324807,0.243276,-0.018633,0.000000,
310251481,-0.137681,16.091857,1,0.983826,0.021545,-0.044556,-0.172241,-0.130000,-0.180000,-0.030000,-0.179576,-0.124033,-0.050679,0.058370,-0.148746,-0.050326,0.000000,
310260637,0.230438,16.091857,1,0.983765,0.021484,-0.044495,-0.172363,-0.060000,-0.160000,-0.110000,-0.099708,-0.126920,-0.123489,0.156477,-0.025823,-0.122683,0.000000,
310273252,0.505248,16.096501,1,0.983765,0.021484,-0.044556,-0.172363,0.070000,-0.320000,0.010000,-0.043297,-0.324833,-0.002873,0.358556,0.222362,-0.004193,0.000000,
310281417,-0.416062,16.096501,1,0.983765,0.021484,-0.044556,-0.172363,0.110000,-0.050000,0.020000,0.084265,-0.085036,0.025849,-0.089385,-0.441232,0.025518,0.000000,
310290684,0.324264,16.087213,1,0.983826,0.021484,-0.044556,-0.172241,0.200000,0.060000,0.030000,0.204707,-0.012588,0.049364,0.145741,-0.140359,0.049102,0.000000,
310303256,-0.231492,16.096501,1,0.983826,0.021484,-0.044617,-0.172180,0.140000,0.020000,0.050000,0.133120,-0.030249,0.062162,-0.075007,-0.411149,0.062018,0.000000,
310311442,0.137634,16.096501,1,0.983826,0.021484,-0.044617,-0.172119,0.140000,0.220000,-0.010000,0.206185,0.159349,0.013983,0.045107,-0.228175,0.014513,0.000000,
310320686,-0.231492,16.096501,1,0.983826,0.021484,-0.044617,-0.172119,0.010000,0.040000,-0.060000,0.028549,0.035802,-0.056596,-0.116974,-0.430432,-0.055813,0.000000,
310333298,-0.046937,16.096501,1,0.983826,0.021484,-0.044617,-0.172241,-0.100000,-0.010000,-0.030000,-0.094183,0.025492,-0.038468,-0.081744,-0.380407,-0.038659,0.000000,
310341463,0.414504,16.091857,1,0.983765,0.021484,-0.044617,-0.172363,-0.120000,-0.020000,-0.010000,-0.118184,0.022401,-0.020749,0.203345,0.047943,-0.020947,0.000000,
310350601,0.043823,16.101145,1,0.983765,0.021484,-0.044556,-0.172424,-0.160000,-0.070000,0.030000,-0.176317,-0.011994,0.012978,0.111534,-0.068507,0.012604,0.000000,
310363196,0.319656,16.105789,1,0.983765,0.021484,-0.044556,-0.172546,-0.010000,0.030000,0.040000,-0.003041,0.030524,0.040731,0.231480,0.081457,0.040421,0.000000,
310371378,0.139694,16.087213,1,0.983765,0.021484,-0.044556,-0.172668,0.080000,-0.120000,-0.020000,0.036276,-0.139528,-0.020401,0.178843,0.002095,-0.019731,0.000000,
310380622,-0.046937,16.096501,1,0.983704,0.021484,-0.044556,-0.172729,0.140000,-0.160000,0.000000,0.077024,-0.198149,0.002007,0.048275,-0.163162,0.001768,0.000000,
310393160,0.599075,16.091857,1,0.983704,0.021484,-0.044617,-0.172729,0.110000,-0.100000,0.050000,0.064447,-0.132875,0.052826,0.366009,0.236366,0.052263,0.000000,
310401530,-0.233552,16.105789,1,0.983765,0.021423,-0.044617,-0.172607,0.160000,-0.100000,0.070000,0.109397,-0.150465,0.076764,0.019702,-0.281014,0.076494,0.000000,
310410666,-0.046937,16.096501,1,0.983765,0.021362,-0.044617,-0.172363,0.090000,-0.090000,-0.010000,0.054895,-0.114997,-0.007880,-0.021417,-0.330492,-0.006950,0.000000,
310423240,0.043823,16.101145,1,0.983826,0.021362,-0.044678,-0.172058,0.040000,0.050000,0.120000,0.042873,0.030176,0.125504,0.012314,-0.281678,0.124045,0.000000,
310431477,-0.140244,16.101145,1,0.983887,0.021362,-0.044678,-0.171875,-0.110000,0.080000,0.060000,-0.081873,0.111013,0.055434,-0.078616,-0.413413,0.056190,0.000000,
310440614,0.319656,16.105789,1,0.983887,0.021362,-0.044678,-0.171692,-0.030000,0.200000,-0.070000,0.045744,0.200088,-0.060599,0.147968,-0.120326,-0.059312,0.000000,
310453247,0.596511,16.101145,1,0.983887,0.021362,-0.044678,-0.171692,-0.010000,0.020000,-0.180000,0.014494,0.027005,-0.178775,0.406853,0.201781,-0.177459,0.000000,
310461415,-0.140244,16.101145,1,0.983887,0.021362,-0.044678,-0.171692,-0.040000,0.060000,0.040000,-0.021136,0.068930,0.040023,0.090723,-0.273644,0.037627,0.000000,
310470552,0.137634,16.096501,1,0.983887,0.021362,-0.044678,-0.171692,0.060000,-0.010000,0.100000,0.043339,-0.032456,0.103771,0.115359,-0.238161,0.103042,0.000000,
310480140,0.043823,16.101145,1,0.983887,0.021362,-0.044678,-0.171692,0.120000,-0.170000,0.090000,0.046763,-0.202996,0.089474,0.071704,-0.289052,0.089623,0.000000,
310492972,-0.233552,16.105789,1,0.983948,0.021362,-0.044678,-0.171570,0.130000,-0.090000,-0.090000,0.100185,-0.126356,-0.084245,-0.109407,-0.515630,-0.082329,0.000000,
310501359,0.505248,16.096501,1,0.983948,0.021301,-0.044678,-0.171509,0.060000,-0.140000,0.060000,0.003532,-0.153597,0.056529,0.243661,0.029826,0.054999,0.000000,
310510505,0.319656,16.105789,1,0.983948,0.021301,-0.044678,-0.171448,0.050000,0.110000,0.220000,0.062815,0.080617,0.229249,0.287929,0.089216,0.227329,0.000000,
310523076,0.414504,16.091857,1,0.983948,0.021301,-0.044739,-0.171448,0.150000,0.200000,0.280000,0.180982,0.129724,0.302187,0.362585,0.185687,0.301363,0.000000,
310531267,0.321182,16.096501,1,0.983948,0.021362,-0.044739,-0.171570,-0.050000,0.230000,0.300000,0.001748,0.225220,0.307690,0.340064,0.152072,0.307620,0.000000,
310540512,0.043823,16.101145,1,0.983887,0.021240,-0.044678,-0.171814,-0.150000,0.230000,0.350000,-0.096546,0.257956,0.349339,0.170103,-0.063880,0.348879,0.000000,
310553081,0.687774,16.105789,1,0.983826,0.021179,-0.044678,-0.172119,-0.190000,0.110000,0.310000,-0.170451,0.159940,0.299442,0.469950,0.318351,0.299987,0.000000,
310561269,0.043823,16.101145,1,0.983765,0.021057,-0.044678,-0.172485,-0.110000,-0.160000,0.020000,-0.158917,-0.113320,0.001937,0.225015,-0.053618,0.005221,0.000000,
310570544,-0.786194,16.105789,1,0.983704,0.020996,-0.044617,-0.172729,-0.010000,-0.240000,-0.040000,-0.086672,-0.221015,-0.054224,-0.360516,-0.802656,-0.053569,0.000000,
310583123,-0.048981,16.105789,1,0.983704,0.020874,-0.044617,-0.172791,0.040000,-0.240000,-0.030000,-0.040839,-0.238363,-0.040189,-0.189682,-0.574793,-0.040336,0.000000,
310591305,-0.048981,16.105789,1,0.983704,0.020874,-0.044617,-0.172791,0.060000,-0.200000,-0.070000,-0.004789,-0.206596,-0.076124,-0.112648,-0.452337,-0.075729,0.000000,
310600441,0.042281,16.110432,1,0.983765,0.020874,-0.044617,-0.172729,0.170000,-0.180000,0.000000,0.098341,-0.227194,0.003530,-0.027160,-0.337482,0.002657,0.000000,
310613009,0.596511,16.101145,1,0.983765,0.020874,-0.044617,-0.172729,0.030000,-0.030000,0.250000,-0.005798,-0.044849,0.249510,0.330739,0.119520,0.246789,0.000000,
310621321,0.319656,16.105789,1,0.983765,0.020874,-0.044617,-0.172729,0.060000,-0.090000,0.310000,-0.003687,-0.113008,0.308247,0.325304,0.112412,0.307569,0.000000,
310630448,0.594467,16.110432,1,0.983765,0.020935,-0.044617,-0.172546,0.140000,0.230000,0.270000,0.183107,0.161349,0.292982,0.482072,0.316003,0.293143,0.000000,
310643018,0.412444,16.101145,1,0.983765,0.020996,-0.044678,-0.172424,0.270000,0.280000,0.110000,0.336867,0.168151,0.147124,0.445624,0.267028,0.148733,0.000000,
310651186,0.226333,16.110432,1,0.983765,0.020996,-0.044617,-0.172424,-0.070000,0.090000,-0.080000,-0.027593,0.110522,-0.080146,0.320415,0.074624,-0.077624,0.000000,
310660412,0.228393,16.101145,1,0.983765,0.021057,-0.044495,-0.172546,-0.450000,0.140000,-0.020000,-0.372261,0.285675,-0.048078,0.267865,0.005977,-0.048404,0.000000,
310672980,-0.048981,16.105789,1,0.983704,0.021057,-0.044495,-0.172791,-0.260000,-0.010000,0.090000,-0.255359,0.077135,0.068128,0.083938,-0.225299,0.066843,0.000000,
310681177,0.505248,16.096501,1,0.983704,0.021057,-0.044556,-0.173035,0.170000,-0.040000,0.330000,0.114271,-0.104344,0.339786,0.326869,0.146532,0.336779,0.000000,
310690423,-0.140244,16.101145,1,0.983582,0.021057,-0.044678,-0.173462,0.160000,-0.090000,0.290000,0.091585,-0.146919,0.296355,0.057975,-0.198000,0.296801,0.000000,
310702998,-0.233552,16.105789,1,0.983521,0.021057,-0.044739,-0.173828,0.370000,-0.190000,0.190000,0.263439,-0.310474,0.208098,-0.113819,-0.409601,0.209076,0.000000,
310711185,0.321182,16.096501,1,0.983459,0.021057,-0.044739,-0.174194,0.060000,-0.050000,0.190000,0.020968,-0.072500,0.191060,0.135565,-0.026285,0.191259,0.000000,
310720439,0.412444,16.101145,1,0.983398,0.021057,-0.044739,-0.174561,-0.150000,-0.160000,0.040000,-0.198702,-0.099358,0.018583,0.295523,0.179884,0.020486,0.000000,
310730030,0.135070,16.105789,1,0.983337,0.021057,-0.044739,-0.174866,0.060000,-0.340000,-0.220000,-0.039219,-0.333984,-0.233487,0.204394,0.059599,-0.230688,0.000000,
310742887,-0.048981,16.105789,1,0.983337,0.021179,-0.044678,-0.174927,-0.300000,-0.090000,-0.230000,-0.289321,0.025349,-0.258168,0.057838,-0.133232,-0.257865,0.000000,
310751273,-0.326859,16.110432,1,0.983337,0.021301,-0.044678,-0.174805,-0.330000,-0.110000,-0.170000,-0.329919,0.015366,-0.202032,-0.167040,-0.479822,-0.202647,0.000000,
310760411,0.319656,16.105789,1,0.983398,0.021423,-0.044739,-0.174561,0.010000,0.110000,-0.780000,0.121373,0.120425,-0.769003,0.110296,-0.116362,-0.762762,0.000000,
310772990,0.687774,16.105789,1,0.983398,0.021545,-0.044800,-0.174561,0.020000,-0.050000,-0.290000,0.029365,-0.046058,-0.289856,0.444262,0.306285,-0.295067,0.000000,
310781197,-0.326859,16.110432,1,0.983398,0.021545,-0.044800,-0.174500,0.280000,0.620000,0.080000,0.465764,0.482889,0.138137,-0.001286,-0.371212,0.133363,0.000000,
310790352,0.042281,16.110432,1,0.983398,0.021484,-0.044800,-0.174683,0.140000,0.180000,-0.010000,0.193346,0.120746,0.011757,0.020523,-0.338581,0.013098,0.000000,
310802918,0.228393,16.101145,1,0.983276,0.021423,-0.044800,-0.175049,0.180000,0.010000,-0.120000,0.183142,-0.049758,-0.104322,0.136978,-0.187519,-0.103028,0.000000,
310811089,0.043823,16.101145,1,0.983276,0.021362,-0.044739,-0.175293,0.280000,0.180000,-0.230000,0.345336,0.077771,-0.195947,0.081320,-0.270889,-0.194923,0.000000,
310820341,0.042281,16.110432,1,0.983215,0.021240,-0.044739,-0.175537,0.250000,0.010000,-0.390000,0.274244,-0.067232,-0.367382,0.056211,-0.303337,-0.365482,0.000000,
310832914,0.226333,16.110432,1,0.983215,0.021118,-0.044678,-0.175720,-0.220000,-0.010000,-0.230000,-0.187058,0.073001,-0.247144,0.151191,-0.181130,-0.248448,0.000000,
310841112,-0.140244,16.101145,1,0.983215,0.020996,-0.044617,-0.175781,-0.200000,0.020000,-0.240000,-0.157140,0.094398,-0.253764,-0.019637,-0.439642,-0.253706,0.000000,
310850355,-0.140244,16.101145,1,0.983215,0.020874,-0.044495,-0.175781,-0.190000,0.140000,-0.190000,-0.111355,0.202082,-0.196375,-0.093496,-0.531489,-0.197007,0.000000,
310862943,0.319656,16.105789,1,0.983215,0.020691,-0.044495,-0.175720,-0.140000,0.180000,-0.140000,-0.055666,0.220871,-0.140419,0.139789,-0.228593,-0.141042,0.000000,
310871114,-0.698029,16.119720,1,0.983215,0.020569,-0.044434,-0.175781,0.140000,0.350000,-0.050000,0.255868,0.280667,-0.018916,-0.348885,-0.966974,-0.020262,0.000000,
310880270,-0.233552,16.105789,1,0.983215,0.020386,-0.044434,-0.175903,0.080000,-0.430000,0.040000,-0.077007,-0.431828,0.022266,-0.291012,-0.880735,0.021797,0.000000,
310892862,0.042281,16.110432,1,0.983093,0.020142,-0.044373,-0.176392,0.190000,-0.160000,0.020000,0.120336,-0.216628,0.026290,-0.108535,-0.635915,0.026241,0.000000,
310901030,-0.604203,16.115076,1,0.983032,0.020020,-0.044373,-0.176941,0.100000,-0.820000,0.030000,-0.193288,-0.803673,-0.007278,-0.401715,-1.072186,-0.006908,0.000000,
310910276,-0.142289,16.110432,1,0.982971,0.020142,-0.044434,-0.177246,0.270000,-0.040000,0.000000,0.238102,-0.132021,0.019444,-0.261522,-0.878574,0.019153,0.000000,
310922862,-0.048981,16.105789,1,0.982971,0.020264,-0.044434,-0.177246,0.300000,0.330000,0.160000,0.379236,0.200064,0.201632,-0.149106,-0.719265,0.199621,0.000000,
310931036,0.226333,16.110432,1,0.982971,0.020264,-0.044434,-0.177307,0.090000,0.160000,0.080000,0.131907,0.116348,0.095729,0.063167,-0.387446,0.096873,0.000000,
310940269,0.226333,16.110432,1,0.982849,0.020264,-0.044373,-0.177734,-0.200000,-0.290000,-0.060000,-0.281707,-0.199762,-0.091844,0.153997,-0.266448,-0.089764,0.000000,
310952842,0.135070,16.105789,1,0.982788,0.020325,-0.044312,-0.178101,-0.290000,-0.050000,-0.050000,-0.283160,0.056464,-0.075708,0.139647,-0.281362,-0.075863,0.000000,
310961041,-0.046937,16.096501,1,0.982788,0.020386,-0.044312,-0.178101,-0.110000,0.340000,-0.040000,0.019594,0.357826,-0.029601,0.028923,-0.446062,-0.030111,0.000000,
310970286,0.228393,16.101145,1,0.982849,0.020447,-0.044312,-0.177917,0.020000,0.440000,-0.040000,0.175515,0.405722,-0.013591,0.140222,-0.297011,-0.013773,0.000000,
310982853,-0.236115,16.115076,1,0.982849,0.020386,-0.044312,-0.177856,0.100000,0.060000,0.060000,0.108488,0.019554,0.071050,-0.082112,-0.574179,0.070115,0.000000,
310991048,0.500640,16.115076,1,0.982849,0.020264,-0.044312,-0.177979,0.130000,-0.250000,0.070000,0.027637,-0.281355,0.066152,0.251802,-0.059756,0.066196,0.000000,
311000278,-0.417603,16.105789,1,0.982788,0.020203,-0.044250,-0.178223,0.220000,-0.380000,0.010000,0.071782,-0.433251,0.006420,-0.136096,-0.560389,0.007079,0.000000,
311012909,-0.419648,16.115076,1,0.982727,0.020203,-0.044250,-0.178406,0.230000,-0.270000,-0.030000,0.123091,-0.332935,-0.026496,-0.307895,-0.770087,-0.026126,0.000000,
311021077,0.687774,16.105789,1,0.982727,0.020203,-0.044250,-0.178406,0.020000,0.070000,0.040000,0.039302,0.057481,0.045291,0.264409,0.111042,0.044504,0.000000,
311030213,0.226333,16.110432,1,0.982788,0.020264,-0.044189,-0.178406,-0.080000,0.100000,0.030000,-0.042530,0.121027,0.029048,0.243395,0.082827,0.029218,0.000000,
311039805,0.135070,16.105789,1,0.982727,0.020264,-0.044189,-0.178528,-0.120000,0.110000,-0.040000,-0.069718,0.146181,-0.043248,0.181514,0.002868,-0.042450,0.000000,
311052636,-0.233552,16.105789,1,0.982666,0.020264,-0.044189,-0.178772,-0.170000,0.080000,-0.090000,-0.122037,0.137016,-0.098657,-0.059758,-0.309546,-0.098038,0.000000,
311061003,-0.142289,16.110432,1,0.982666,0.020264,-0.044189,-0.179016,0.030000,0.300000,0.020000,0.131089,0.269437,0.038987,-0.110350,-0.383411,0.037477,0.000000,
311070158,0.042281,16.110432,1,0.982605,0.020264,-0.044189,-0.179382,0.100000,0.280000,-0.010000,0.192320,0.226559,0.013594,-0.025494,-0.266781,0.013857,0.000000,
311082756,0.042281,16.110432,1,0.982483,0.020325,-0.044189,-0.179932,0.140000,0.170000,-0.080000,0.197719,0.111025,-0.058996,0.010516,-0.217239,-0.058194,0.000000,
311090957,-0.140244,16.101145,1,0.982300,0.020386,-0.044189,-0.180725,0.120000,0.030000,-0.040000,0.126057,-0.013844,-0.028596,-0.078880,-0.350913,-0.028922,0.000000,
311100218,0.409881,16.110432,1,0.982178,0.020386,-0.044189,-0.181641,0.080000,-0.160000,0.030000,0.014782,-0.178718,0.027234,0.200722,0.015922,0.026615,0.000000,
311112781,0.226333,16.110432,1,0.981995,0.020447,-0.044189,-0.182556,0.110000,-0.040000,0.020000,0.086084,-0.077419,0.026379,0.215802,0.035232,0.026382,0.000000,
311120968,-0.511414,16.110432,1,0.981750,0.020508,-0.044128,-0.183716,0.640000,0.270000,-0.070000,0.697806,0.021208,-0.003788,-0.206484,-0.607122,-0.003455,0.000000,
311130215,0.317092,16.115076,1,0.981567,0.020630,-0.044250,-0.184631,-1.070000,-2.040000,0.510000,-1.776735,-1.521721,0.306817,0.090891,-0.212301,0.303398,0.000000,
311142785,0.687774,16.105789,1,0.981567,0.020630,-0.044250,-0.184631,0.630000,0.160000,-0.100000,0.651731,-0.078126,-0.040500,0.434950,0.228842,-0.036711,0.000000,
311150985,0.135070,16.105789,1,0.981445,0.020691,-0.044189,-0.185364,-0.680000,-0.890000,-0.280000,-0.926378,-0.572632,-0.383160,0.262555,-0.039174,-0.379342,0.000000,
311160122,0.042281,16.110432,1,0.981445,0.020691,-0.044189,-0.185486,-0.360000,0.150000,0.050000,-0.284204,0.270069,0.029850,0.134749,-0.203957,0.025341,0.000000,
311180385,0.596511,16.101145,1,0.981323,0.020691,-0.044250,-0.186035,0.310000,-1.010000,-0.320000,-0.049340,-1.045254,-0.351580,0.401339,0.128534,-0.347427,0.000000,
311189868,-0.140244,16.101145,1,0.981445,0.020813,-0.044434,-0.185486,0.180000,-0.990000,0.140000,-0.205005,-0.990301,0.096872,0.081892,-0.525590,0.091975,0.000000,
311199605,-0.048981,16.105789,1,0.981567,0.021057,-0.044617,-0.184509,0.130000,-0.460000,0.170000,-0.061335,-0.479833,0.152960,0.000348,-0.646276,0.152288,0.000000,
311212558,0.137634,16.096501,1,0.981628,0.021423,-0.044739,-0.184143,0.370000,-0.010000,0.300000,0.311113,-0.151459,0.327518,0.072159,-0.528286,0.325587,0.000000,
311220942,0.046890,16.091857,1,0.981873,0.021790,-0.044800,-0.182922,0.330000,1.960000,0.040000,1.002984,1.706733,0.182193,0.053017,-0.550054,0.183774,0.000000,
311230062,0.135070,16.105789,1,0.982056,0.021912,-0.044739,-0.182007,-0.140000,1.190000,-0.150000,0.307283,1.164351,-0.089847,0.095512,-0.488248,-0.086832,0.000000,
311242696,-0.048981,16.105789,1,0.982056,0.021790,-0.044556,-0.182007,-0.460000,0.020000,-0.290000,-0.392908,0.191698,-0.324000,0.005395,-0.597691,-0.321386,0.000000,
311250870,-0.048981,16.105789,1,0.982056,0.021667,-0.044434,-0.181885,-0.520000,-0.320000,-0.140000,-0.583921,-0.108065,-0.199390,-0.031082,-0.646427,-0.200734,0.000000,
311260106,0.687774,16.105789,1,0.982178,0.021606,-0.044495,-0.181274,-0.050000,0.340000,0.050000,0.069138,0.333922,0.065692,0.378729,-0.120022,0.062756,0.000000,
311272671,-0.326859,16.110432,1,0.982300,0.021545,-0.044678,-0.180603,0.320000,0.620000,0.090000,0.508037,0.462466,0.151403,-0.032391,-0.627283,0.150426,0.000000,
311280858,-0.048981,16.105789,1,0.982361,0.021484,-0.044800,-0.180359,0.400000,0.390000,0.100000,0.500242,0.219150,0.154379,-0.047156,-0.640312,0.154335,0.000000,
311290092,0.503204,16.105789,1,0.982300,0.021362,-0.044739,-0.180725,0.310000,-0.770000,-0.060000,0.022327,-0.828109,-0.079619,0.265234,-0.238861,-0.077041,0.000000,
311302687,0.043823,16.101145,1,0.982117,0.021423,-0.044739,-0.181641,0.300000,-0.870000,-0.050000,-0.024949,-0.918112,-0.076475,0.133675,-0.399720,-0.076482,0.000000,
311310887,-0.140244,16.101145,1,0.981995,0.021484,-0.044739,-0.182251,0.280000,-0.390000,0.040000,0.117604,-0.465529,0.039397,-0.028689,-0.636130,0.038120,0.000000,
311320042,0.042281,16.110432,1,0.981995,0.021667,-0.044800,-0.182373,0.080000,0.490000,0.000000,0.248914,0.428136,0.035265,0.006535,-0.583768,0.035297,0.000000,
311329630,0.319656,16.105789,1,0.981995,0.021729,-0.044739,-0.182312,-0.210000,0.390000,0.020000,-0.058231,0.438780,0.026118,0.182032,-0.357873,0.026219,0.000000,
311342427,0.133026,16.115076,1,0.981995,0.021790,-0.044617,-0.182312,-0.330000,0.200000,0.080000,-0.243172,0.303194,0.065123,0.148983,-0.393070,0.064694,0.000000,
311350812,0.137634,16.096501,1,0.981995,0.021667,-0.044556,-0.182434,-0.510000,-0.030000,0.050000,-0.489489,0.154427,0.007394,0.139089,-0.403005,0.008025,0.000000,
311359946,0.135070,16.105789,1,0.981934,0.021667,-0.044617,-0.182617,-0.300000,-0.040000,0.220000,-0.314082,0.065100,0.192651,0.133091,-0.404259,0.190617,0.000000,
311372516,0.226333,16.110432,1,0.981873,0.021667,-0.044739,-0.182861,0.180000,-0.210000,-0.120000,0.103733,-0.257602,-0.117391,0.182143,-0.337872,-0.113997,0.000000,
311380716,0.226333,16.110432,1,0.981873,0.021667,-0.044861,-0.183044,0.140000,-0.130000,-0.060000,0.089341,-0.170195,-0.056146,0.205038,-0.299965,-0.056783,0.000000,
311389960,0.133026,16.115076,1,0.981812,0.021667,-0.044922,-0.183105,0.230000,-0.150000,0.060000,0.154240,-0.224511,0.069315,0.160611,-0.352371,0.067925,0.000000,
311402507,0.228393,16.101145,1,0.981812,0.021667,-0.044922,-0.183105,0.340000,-0.310000,-0.160000,0.220355,-0.407655,-0.150200,0.195535,-0.304917,-0.147796,0.000000,
311410695,-0.142289,16.110432,1,0.981873,0.021667,-0.044922,-0.182861,0.570000,-0.270000,0.050000,0.428343,-0.458788,0.079593,-0.003174,-0.597520,0.077087,0.000000,
311419942,-0.051545,16.115076,1,0.981995,0.021606,-0.044861,-0.182373,0.450000,0.170000,-0.120000,0.490334,-0.000391,-0.073308,-0.036683,-0.633829,-0.071651,0.000000,
311432501,-0.142289,16.110432,1,0.982056,0.021667,-0.044739,-0.181824,-0.230000,0.190000,-0.060000,-0.140642,0.261420,-0.066925,-0.105971,-0.711613,-0.066977,0.000000,
311440701,0.133026,16.115076,1,0.982178,0.021667,-0.044556,-0.181396,-0.480000,0.290000,-0.110000,-0.333239,0.445511,-0.130667,0.027014,-0.504803,-0.129965,0.000000,
311449840,-0.142289,16.110432,1,0.982239,0.021667,-0.044495,-0.181030,-0.150000,0.000000,-0.040000,-0.135764,0.054692,-0.051739,-0.075529,-0.630297,-0.052601,0.000000,
311462407,0.226333,16.110432,1,0.982239,0.021606,-0.044556,-0.180847,0.070000,0.160000,-0.010000,0.122632,0.124644,0.004999,0.091805,-0.411319,0.004364,0.000000,
311470598,-0.233552,16.105789,1,0.982300,0.021606,-0.044617,-0.180725,0.090000,0.000000,0.170000,0.067534,-0.036603,0.176350,-0.100538,-0.692811,0.174455,0.000000,
311479844,-0.051545,16.115076,1,0.982300,0.021606,-0.044617,-0.180664,-0.130000,0.240000,0.300000,-0.064913,0.262603,0.302202,-0.078589,-0.653834,0.300794,0.000000,
311492416,0.317092,16.115076,1,0.982300,0.021667,-0.044495,-0.180542,-0.040000,0.160000,0.040000,0.015399,0.162624,0.046002,0.142974,-0.364169,0.048810,0.000000,
311500604,0.226333,16.110432,1,0.982300,0.021667,-0.044434,-0.180603,-0.140000,0.040000,-0.160000,-0.100980,0.091539,-0.167999,0.188410,-0.292796,-0.165610,0.000000,
311509740,-0.419648,16.115076,1,0.982300,0.021667,-0.044495,-0.180542,0.330000,-0.100000,-0.010000,0.272856,-0.210807,0.010450,-0.165991,-0.742795,0.008510,0.000000,
311522362,0.596511,16.101145,1,0.982300,0.021667,-0.044556,-0.180542,0.300000,-0.090000,0.010000,0.246549,-0.191300,0.028585,0.267383,-0.188129,0.028364,0.000000,
311530551,0.042281,16.110432,1,0.982300,0.021667,-0.044556,-0.180603,0.090000,-0.090000,0.060000,0.046291,-0.117740,0.061600,0.135075,-0.384415,0.061233,0.000000,
311539697,0.409881,16.110432,1,0.982300,0.021606,-0.044556,-0.180786,0.050000,-0.080000,0.030000,0.015413,-0.093341,0.029154,0.290527,-0.180433,0.029508,0.000000,
311552269,-0.053589,16.124364,1,0.982239,0.021729,-0.044495,-0.181030,-0.090000,0.190000,-0.050000,-0.011779,0.210877,-0.045743,0.088445,-0.431644,-0.044913,0.000000,
311560455,-0.326859,16.110432,1,0.982178,0.021729,-0.044495,-0.181335,-0.090000,0.120000,-0.020000,-0.039306,0.144758,-0.020001,-0.156339,-0.794496,-0.020275,0.000000,
311569627,0.226333,16.110432,1,0.982117,0.021790,-0.044495,-0.181641,0.010000,0.230000,0.040000,0.087102,0.209952,0.054160,0.057744,-0.510350,0.053340,0.000000,
311582193,0.042281,16.110432,1,0.982056,0.021790,-0.044495,-0.182007,0.040000,-0.010000,0.120000,0.022197,-0.026897,0.121999,0.042362,-0.520107,0.121243,0.000000,
311590383,0.226333,16.110432,1,0.981995,0.021851,-0.044495,-0.182312,0.090000,-0.070000,-0.130000,0.071129,-0.094210,-0.126353,0.144971,-0.360295,-0.123625,0.000000,
311599617,0.133026,16.115076,1,0.981934,0.021851,-0.044495,-0.182556,0.020000,-0.090000,-0.110000,-0.003014,-0.088191,-0.113195,0.134728,-0.370207,-0.113310,0.000000,
311609213,0.042281,16.110432,1,0.981873,0.021851,-0.044495,-0.182800,0.010000,-0.140000,0.010000,-0.041646,-0.134385,0.002460,0.077687,-0.438000,0.001184,0.000000,
311622038,0.042281,16.110432,1,0.981812,0.021851,-0.044495,-0.183105,0.020000,-0.100000,0.060000,-0.022903,-0.102026,0.055372,0.051493,-0.463730,0.054775,0.000000,
311630414,0.042281,16.110432,1,0.981750,0.021851,-0.044495,-0.183533,0.040000,-0.010000,0.060000,0.027840,-0.025403,0.062287,0.042254,-0.471443,0.062204,0.000000,
311639550,0.039199,16.119720,1,0.981689,0.021851,-0.044495,-0.184082,0.040000,0.070000,-0.010000,0.063248,0.050920,-0.002628,0.036178,-0.473786,-0.001914,0.000000,
311652158,-0.051545,16.115076,1,0.981567,0.021912,-0.044434,-0.184692,-0.020000,0.110000,0.010000,0.020159,0.109414,0.014905,-0.020751,-0.538243,0.014720,0.000000,
311660329,0.135070,16.105789,1,0.981445,0.021912,-0.044434,-0.185242,-0.160000,0.050000,-0.010000,-0.129351,0.105275,-0.019633,0.065389,-0.401244,-0.019255,0.000000,
311669484,-0.051545,16.115076,1,0.981384,0.021973,-0.044434,-0.185669,-0.110000,0.040000,0.000000,-0.087483,0.077505,-0.006311,-0.005935,-0.488370,-0.006453,0.000000,
311682074,0.223770,16.119720,1,0.981262,0.021973,-0.044373,-0.186035,-0.020000,-0.120000,-0.040000,-0.058304,-0.103172,-0.048538,0.121309,-0.320875,-0.048074,0.000000,
311690241,-0.236115,16.115076,1,0.981201,0.021973,-0.044495,-0.186340,0.130000,0.030000,-0.020000,0.133279,-0.019373,-0.007824,-0.088963,-0.634675,-0.008267,0.000000,
311699488,0.135070,16.105789,1,0.981140,0.021912,-0.044556,-0.186707,0.210000,-0.310000,0.000000,0.081556,-0.365437,-0.001844,0.034788,-0.468082,-0.001915,0.000000,
311712074,0.317092,16.115076,1,0.981079,0.021912,-0.044556,-0.187195,0.110000,-0.310000,-0.010000,-0.010449,-0.328332,-0.019736,0.192866,-0.260595,-0.019539,0.000000,
311720244,0.409881,16.110432,1,0.980957,0.021912,-0.044556,-0.187683,0.110000,-0.350000,-0.030000,-0.023510,-0.364937,-0.042041,0.316824,-0.070042,-0.041793,0.000000,
311729390,-0.144333,16.119720,1,0.980896,0.021912,-0.044556,-0.187988,0.110000,-0.180000,-0.030000,0.038627,-0.207100,-0.031896,0.049392,-0.413822,-0.032005,0.000000,
311741962,-0.236115,16.115076,1,0.980896,0.021912,-0.044556,-0.188110,0.070000,0.190000,0.010000,0.133557,0.150140,0.026845,-0.121607,-0.622515,0.026196,0.000000,
311750168,0.133026,16.115076,1,0.980896,0.021912,-0.044556,-0.188232,0.000000,0.090000,0.010000,0.032102,0.083274,0.015329,0.021225,-0.398842,0.015449,0.000000,
311759414,0.409881,16.110432,1,0.980835,0.021912,-0.044556,-0.188293,0.000000,-0.050000,-0.020000,-0.016458,-0.045882,-0.022890,0.242420,-0.109120,-0.022467,0.000000,
311771980,-0.419648,16.115076,1,0.980835,0.021973,-0.044556,-0.188354,0.010000,0.050000,-0.040000,0.031455,0.043742,-0.036017,-0.143515,-0.597734,-0.035868,0.000000,
311780145,-0.051545,16.115076,1,0.980835,0.021973,-0.044556,-0.188477,-0.030000,-0.180000,0.060000,-0.099689,-0.157466,0.046548,-0.094958,-0.516405,0.045640,0.000000,
311789422,0.042281,16.110432,1,0.980774,0.021973,-0.044556,-0.188721,0.010000,-0.220000,0.030000,-0.074633,-0.208627,0.017461,-0.020338,-0.413959,0.017772,0.000000,
311802025,0.317092,16.115076,1,0.980713,0.021912,-0.044556,-0.188904,0.010000,-0.150000,0.040000,-0.049865,-0.143921,0.031622,0.170463,-0.164329,0.031470,0.000000,
311810225,0.042281,16.110432,1,0.980713,0.021912,-0.044556,-0.189087,0.140000,-0.080000,0.180000,0.082697,-0.131102,0.185401,0.094636,-0.275925,0.183705,0.000000,
311819360,0.133026,16.115076,1,0.980652,0.021912,-0.044617,-0.189209,0.110000,-0.030000,0.310000,0.060914,-0.076947,0.315386,0.114340,-0.244331,0.313935,0.000000,
311831927,0.594467,16.110432,1,0.980652,0.021912,-0.044678,-0.189392,0.430000,0.270000,0.660000,0.433889,0.072609,0.707015,0.390157,0.116756,0.702683,0.000000,
311840116,0.039199,16.119720,1,0.980591,0.021912,-0.044739,-0.189697,0.280000,0.480000,0.620000,0.376808,0.324156,0.667937,0.187229,-0.186320,0.668320,0.000000,
311849260,0.133026,16.115076,1,0.980469,0.021912,-0.044739,-0.190369,0.110000,0.000000,-0.070000,0.108312,-0.039463,-0.060920,0.154163,-0.227321,-0.052884,0.000000,
311861833,0.779037,16.110432,1,0.980286,0.021973,-0.044739,-0.191101,-0.080000,-0.120000,-0.280000,-0.091650,-0.073714,-0.292175,0.514174,0.227394,-0.289538,0.000000,
311870048,-0.419648,16.115076,1,0.980164,0.021973,-0.044739,-0.191772,-0.070000,-0.500000,-0.440000,-0.209259,-0.424885,-0.473479,-0.026555,-0.598041,-0.471453,0.000000,
311879269,-0.236115,16.115076,1,0.980103,0.021973,-0.044678,-0.192200,-0.180000,-0.470000,-0.430000,-0.300843,-0.355518,-0.470427,-0.153348,-0.759114,-0.470438,0.000000,
311891827,0.594467,16.110432,1,0.980103,0.021973,-0.044678,-0.192261,0.080000,-0.340000,-0.010000,-0.052742,-0.344584,-0.024105,0.271483,-0.207641,-0.029024,0.000000,
311900013,0.500640,16.115076,1,0.980103,0.021973,-0.044678,-0.192139,0.110000,-0.330000,0.120000,-0.033724,-0.350070,0.108231,0.402936,-0.004834,0.106718,0.000000,
311909236,0.317092,16.115076,1,0.980103,0.021973,-0.044678,-0.192017,0.300000,-0.250000,0.190000,0.164830,-0.349754,0.197743,0.353229,-0.067167,0.196740,0.000000,
311918835,0.685211,16.115076,1,0.980164,0.021973,-0.044678,-0.191895,0.260000,-0.080000,0.270000,0.183953,-0.179347,0.284423,0.544702,0.180527,0.283457,0.000000,
311931623,0.685211,16.115076,1,0.980164,0.022034,-0.044739,-0.191833,0.080000,0.040000,0.300000,0.059908,-0.001034,0.307262,0.628723,0.290032,0.307000,0.000000,
311940016,0.133026,16.115076,1,0.980164,0.022095,-0.044678,-0.191711,0.110000,0.320000,0.290000,0.193249,0.247016,0.316603,0.342853,-0.152338,0.316497,0.000000,
311949151,0.223770,16.119720,1,0.980225,0.022156,-0.044617,-0.191528,-0.130000,0.150000,0.170000,-0.080232,0.183439,0.167968,0.272526,-0.241769,0.169604,0.000000,
311961738,0.223770,16.119720,1,0.980286,0.022156,-0.044556,-0.191345,-0.140000,0.150000,0.160000,-0.088550,0.187444,0.157238,0.241170,-0.275927,0.157375,0.000000,
311970098,0.409881,16.110432,1,0.980286,0.022156,-0.044495,-0.191223,-0.240000,0.070000,0.340000,-0.227933,0.146280,0.323649,0.336941,-0.124025,0.321817,0.000000,
311979225,-0.236115,16.115076,1,0.980347,0.022156,-0.044495,-0.191040,-0.160000,-0.010000,0.180000,-0.168641,0.046227,0.165902,0.004150,-0.556117,0.167620,0.000000,
311991798,0.500640,16.115076,1,0.980347,0.022156,-0.044495,-0.191040,-0.010000,-0.050000,0.210000,-0.047959,-0.048088,0.205153,0.285561,-0.187255,0.204739,0.000000,
312000000,0.685211,16.115076,1,0.980286,0.022156,-0.044495,-0.191223,0.220000,-0.280000,-0.040000,0.102446,-0.341104,-0.039402,0.516249,0.164996,-0.036712,0.000000,
312009136,-0.051545,16.115076,1,0.980225,0.022156,-0.044556,-0.191406,0.310000,-0.150000,-0.090000,0.238689,-0.253425,-0.074179,0.189235,-0.260873,-0.073766,0.000000,
312021700,-0.144333,16.119720,1,0.980225,0.022156,-0.044556,-0.191467,0.230000,-0.140000,-0.160000,0.175282,-0.212165,-0.149538,-0.007780,-0.507923,-0.148703,0.000000,
312029890,0.314529,16.124364,1,0.980225,0.022217,-0.044495,-0.191467,0.110000,0.030000,0.050000,0.107914,-0.015062,0.060230,0.175332,-0.223487,0.057927,0.000000,
312039143,0.500640,16.115076,1,0.980286,0.022278,-0.044434,-0.191406,-0.250000,0.070000,-0.660000,-0.141440,0.176713,-0.672137,0.361475,0.013612,-0.664092,0.000000,
312051738,-0.051545,16.115076,1,0.980286,0.022278,-0.044312,-0.191406,-0.170000,-0.370000,-0.760000,-0.222487,-0.258088,-0.792017,0.121651,-0.301991,-0.790607,0.000000,
312059906,0.039199,16.119720,1,0.980286,0.022217,-0.044250,-0.191284,-0.360000,-0.280000,-0.380000,-0.400505,-0.113397,-0.423245,0.071258,-0.378361,-0.427294,0.000000,
312069042,0.500640,16.115076,1,0.980408,0.022156,-0.044250,-0.190796,-0.320000,-0.130000,0.030000,-0.346686,-0.000860,-0.003050,0.316232,-0.056991,-0.007725,0.000000,
312081665,-0.053589,16.124364,1,0.980469,0.022095,-0.044312,-0.190430,0.060000,-0.020000,-0.060000,0.053702,-0.039466,-0.056201,0.100712,-0.329562,-0.055667,0.000000,
312089836,0.039199,16.119720,1,0.980469,0.022156,-0.044434,-0.190186,0.230000,0.170000,-0.160000,0.290808,0.075553,-0.130850,0.062271,-0.385006,-0.130022,0.000000,
312098962,-0.053589,16.124364,1,0.980530,0.022095,-0.044495,-0.190002,0.250000,-0.070000,-0.430000,0.246146,-0.147160,-0.412379,-0.008293,-0.475490,-0.409268,0.000000,
312111538,-0.236115,16.115076,1,0.980530,0.022095,-0.044495,-0.189880,0.090000,0.010000,-0.510000,0.135638,-0.010941,-0.499782,-0.146624,-0.649179,-0.498785,0.000000,
312119736,0.500640,16.115076,1,0.980591,0.022095,-0.044495,-0.189575,0.140000,0.190000,-0.150000,0.213995,0.127801,-0.126777,0.224144,-0.079368,-0.130877,0.000000,
312128982,0.226333,16.110432,1,0.980652,0.022095,-0.044495,-0.189209,0.100000,0.270000,0.070000,0.185415,0.211243,0.093792,0.224681,-0.076864,0.091316,0.000000,
312141547,-0.053589,16.124364,1,0.980713,0.022095,-0.044495,-0.189026,0.220000,0.330000,0.340000,0.292597,0.215080,0.375536,0.062095,-0.278220,0.372404,0.000000,
312149736,-0.328904,16.119720,1,0.980713,0.021973,-0.044495,-0.189087,-0.010000,-0.150000,0.310000,-0.094215,-0.143545,0.298695,-0.167380,-0.621381,0.299507,0.000000,
312158874,-0.144333,16.119720,1,0.980652,0.021973,-0.044495,-0.189392,-0.010000,-0.190000,0.040000,-0.083272,-0.173502,0.027623,-0.159723,-0.603852,0.030619,0.000000,
312179093,0.317092,16.115076,1,0.980530,0.021973,-0.044434,-0.190125,-0.180000,-0.290000,-0.380000,-0.237548,-0.191337,-0.409709,0.107598,-0.261155,-0.404857,0.000000,
312188567,0.226333,16.110432,1,0.980530,0.021973,-0.044434,-0.190125,-0.050000,0.000000,-0.240000,-0.023270,0.025026,-0.242760,0.175411,-0.119889,-0.244546,0.000000,
312198414,-0.233552,16.105789,1,0.980530,0.021973,-0.044434,-0.189941,0.020000,-0.120000,-0.250000,-0.002115,-0.112162,-0.254392,-0.064662,-0.504120,-0.254283,0.000000,
312212442,-0.236115,16.115076,1,0.980591,0.021912,-0.044495,-0.189697,0.250000,-0.240000,-0.080000,0.149844,-0.313905,-0.074234,-0.172022,-0.648120,-0.076218,0.000000,
312220025,-0.604203,16.115076,1,0.980652,0.021790,-0.044556,-0.189392,0.250000,-0.240000,-0.080000,0.150041,-0.313835,-0.074130,-0.428905,-1.067710,-0.074153,0.000000,
312229036,0.042281,16.110432,1,0.980713,0.021790,-0.044556,-0.189026,0.230000,-0.250000,-0.030000,0.123315,-0.316842,-0.026542,-0.165877,-0.715273,-0.027067,0.000000,
312241462,0.042281,16.110432,1,0.980774,0.021790,-0.044556,-0.188721,0.130000,0.000000,0.100000,0.110662,-0.050969,0.109801,-0.053949,-0.564442,0.108292,0.000000,
312249651,0.226333,16.110432,1,0.980835,0.021790,-0.044556,-0.188354,0.140000,0.160000,0.090000,0.179713,0.094159,0.110169,0.104141,-0.324495,0.110148,0.000000,
312258778,0.409881,16.110432,1,0.980896,0.021729,-0.044556,-0.188232,0.060000,0.300000,0.060000,0.159976,0.254634,0.082279,0.277959,-0.101615,0.082586,0.000000,
312268380,-0.051545,16.115076,1,0.980835,0.021790,-0.044556,-0.188293,0.160000,0.350000,0.090000,0.268014,0.263103,0.123062,0.086455,-0.336039,0.122616,0.000000,
312281192,-0.051545,16.115076,1,0.980835,0.021790,-0.044556,-0.188538,0.270000,0.190000,0.110000,0.309117,0.073075,0.142153,0.001986,-0.435222,0.141938,0.000000,
312289587,0.133026,16.115076,1,0.980713,0.021790,-0.044556,-0.188904,0.100000,0.130000,0.020000,0.138469,0.082834,0.035562,0.074507,-0.319892,0.036734,0.000000,
312298725,0.317092,16.115076,1,0.980652,0.021790,-0.044556,-0.189392,-0.010000,-0.040000,-0.030000,-0.021154,-0.032583,-0.033028,0.211960,-0.138888,-0.032259,0.000000,
312311349,0.226333,16.110432,1,0.980530,0.021851,-0.044556,-0.189819,-0.070000,-0.180000,-0.150000,-0.116981,-0.136773,-0.165555,0.218539,-0.130543,-0.164086,0.000000,
312319545,0.226333,16.110432,1,0.980469,0.021851,-0.044556,-0.190308,-0.030000,-0.310000,0.080000,-0.150445,-0.278067,0.058694,0.221999,-0.123288,0.056239,0.000000,
312328659,0.133026,16.115076,1,0.980408,0.021851,-0.044556,-0.190674,0.050000,-0.400000,-0.030000,-0.099735,-0.388548,-0.049835,0.169415,-0.189143,-0.048666,0.000000,
312341238,0.500640,16.115076,1,0.980347,0.021912,-0.044495,-0.190979,0.220000,-0.390000,-0.100000,0.067366,-0.441388,-0.105540,0.359298,0.048065,-0.104913,0.000000,
312349438,0.039199,16.119720,1,0.980286,0.021912,-0.044495,-0.191223,0.160000,-0.200000,-0.090000,0.081679,-0.243144,-0.088936,0.173786,-0.229442,-0.089112,0.000000,
312358576,0.130981,16.124364,1,0.980286,0.021912,-0.044495,-0.191223,0.120000,-0.010000,0.000000,0.107019,-0.054482,0.008863,0.146933,-0.260811,0.007783,0.000000,
312371145,-0.238160,16.124364,1,0.980347,0.021851,-0.044556,-0.191101,0.140000,0.010000,0.140000,0.119546,-0.047083,0.150970,-0.079884,-0.536906,0.149393,0.000000,
312379316,0.869796,16.115076,1,0.980347,0.021851,-0.044556,-0.190918,0.230000,0.040000,0.050000,0.222430,-0.050790,0.070322,0.467270,0.286137,0.071193,0.000000,
312388545,0.500640,16.115076,1,0.980408,0.021851,-0.044556,-0.190735,0.110000,-0.010000,0.000000,0.097839,-0.050617,0.008095,0.489213,0.310730,0.008790,0.000000,
312401122,-0.238160,16.124364,1,0.980408,0.021851,-0.044495,-0.190674,-0.030000,-0.040000,-0.030000,-0.039710,-0.025002,-0.034612,0.070780,-0.218242,-0.034134,0.000000,
312409304,0.226333,16.110432,1,0.980408,0.021851,-0.044373,-0.190674,-0.180000,0.090000,0.010000,-0.133682,0.150757,0.001169,0.159346,-0.083000,0.000780,0.000000,
312418547,-0.053589,16.124364,1,0.980408,0.021912,-0.044373,-0.190735,-0.120000,0.080000,-0.020000,-0.079125,0.119736,-0.024548,0.035401,-0.240198,-0.024269,0.000000,
312431102,-0.422211,16.124364,1,0.980347,0.021912,-0.044312,-0.190857,-0.010000,0.130000,-0.030000,0.042020,0.124947,-0.022855,-0.233339,-0.574051,-0.022870,0.000000,
312439293,0.407836,16.119720,1,0.980347,0.021912,-0.044312,-0.191101,0.100000,0.050000,-0.010000,0.111893,0.008897,0.000894,0.134392,-0.016107,0.000633,0.000000,
312448421,0.317092,16.115076,1,0.980286,0.021912,-0.044373,-0.191406,0.140000,0.060000,0.030000,0.148728,0.001957,0.044455,0.239922,0.119213,0.043972,0.000000,
312460991,-0.144333,16.119720,1,0.980225,0.021912,-0.044373,-0.191772,0.130000,-0.060000,-0.020000,0.099393,-0.104138,-0.013284,0.018332,-0.159545,-0.012653,0.000000,
312469191,0.130981,16.124364,1,0.980103,0.021912,-0.044373,-0.192139,0.150000,-0.090000,-0.050000,0.109382,-0.138760,-0.043371,0.082455,-0.061889,-0.043033,0.000000,
312478439,0.133026,16.115076,1,0.980042,0.021912,-0.044373,-0.192444,0.070000,-0.190000,0.020000,-0.008668,-0.202802,0.013995,0.111139,-0.024370,0.013366,0.000000,
312490987,0.500640,16.115076,1,0.979980,0.021912,-0.044373,-0.192749,0.000000,-0.190000,0.030000,-0.074271,-0.176475,0.018443,0.337024,0.260695,0.018387,0.000000,
312499181,0.407836,16.119720,1,0.979980,0.021851,-0.044373,-0.192993,-0.120000,-0.150000,0.050000,-0.171806,-0.094344,0.031338,0.380296,0.322732,0.031195,0.000000,
312508394,0.039199,16.119720,1,0.979919,0.021851,-0.044373,-0.193176,-0.190000,-0.060000,-0.020000,-0.195763,0.017350,-0.038419,0.185942,0.069782,-0.037652,0.000000,
312517996,-0.422211,16.124364,1,0.979858,0.021912,-0.044373,-0.193359,-0.190000,-0.030000,-0.020000,-0.184445,0.045154,-0.036617,-0.165232,-0.374961,-0.036628,0.000000,
312530801,0.130981,16.124364,1,0.979858,0.021912,-0.044373,-0.193420,0.010000,0.090000,-0.030000,0.046015,0.080143,-0.023659,0.002138,-0.154702,-0.023802,0.000000,
312539169,0.317092,16.115076,1,0.979858,0.021912,-0.044373,-0.193542,0.070000,0.040000,0.010000,0.078619,0.010021,0.017849,0.183989,0.125971,0.017390,0.000000,
312548307,-0.328904,16.119720,1,0.979797,0.021912,-0.044373,-0.193665,0.140000,0.080000,0.030000,0.156289,0.019747,0.045648,-0.111730,-0.261660,0.045337,0.000000,
312560872,0.130981,16.124364,1,0.979797,0.021912,-0.044373,-0.193848,0.120000,0.060000,0.030000,0.130321,0.008844,0.042876,0.025954,-0.082768,0.042903,0.000000,
312569059,-0.053589,16.124364,1,0.979736,0.021912,-0.044312,-0.194092,0.060000,-0.090000,-0.060000,0.026910,-0.104524,-0.060420,-0.020938,-0.152961,-0.059281,0.000000,
312578327,-0.238160,16.124364,1,0.979675,0.021912,-0.044312,-0.194397,0.060000,-0.190000,-0.020000,-0.014864,-0.197913,-0.026635,-0.148038,-0.314550,-0.026994,0.000000,
312590974,-0.606766,16.124364,1,0.979614,0.021973,-0.044312,-0.194641,0.010000,-0.160000,0.030000,-0.054362,-0.152329,0.020988,-0.418477,-0.651501,0.020459,0.000000,
312599175,0.223770,16.119720,1,0.979553,0.021973,-0.044312,-0.194885,0.030000,-0.120000,-0.010000,-0.017025,-0.122024,-0.014842,-0.050625,-0.086263,-0.014453,0.000000,
312608287,-0.144333,16.119720,1,0.979553,0.021973,-0.044312,-0.195068,0.010000,0.090000,0.080000,0.035788,0.077162,0.085821,-0.105620,-0.155326,0.084716,0.000000,
312620854,-0.331467,16.129008,1,0.979492,0.021973,-0.044373,-0.195312,0.030000,0.150000,0.150000,0.070366,0.123017,0.160671,-0.238700,-0.318082,0.159834,0.000000,
312629043,0.317092,16.115076,1,0.979431,0.021973,-0.044373,-0.195740,0.120000,0.290000,0.170000,0.204722,0.216889,0.196084,0.081576,0.169829,0.195685,0.000000,
312638170,0.130981,16.124364,1,0.979309,0.022034,-0.044373,-0.196350,0.110000,0.000000,-0.180000,0.118286,-0.037887,-0.170508,0.111698,0.204981,-0.166473,0.000000,
312650742,0.407836,16.119720,1,0.979187,0.022034,-0.044312,-0.196899,-0.060000,-0.170000,-0.050000,-0.115560,-0.132115,-0.064743,0.286226,0.420245,-0.065864,0.000000,
312658943,0.130981,16.124364,1,0.979065,0.022034,-0.044312,-0.197388,-0.010000,-0.190000,0.100000,-0.091794,-0.173691,0.087208,0.199486,0.285001,0.085521,0.000000,
312668189,-0.422211,16.124364,1,0.979004,0.022034,-0.044373,-0.197754,-0.010000,-0.290000,0.110000,-0.131416,-0.265960,0.091078,-0.157581,-0.176825,0.091016,0.000000,
312680778,0.039199,16.119720,1,0.978943,0.022034,-0.044434,-0.197876,0.040000,-0.530000,-0.060000,-0.161841,-0.502023,-0.088758,-0.045517,-0.033138,-0.086777,0.000000,
312688949,0.223770,16.119720,1,0.978943,0.022034,-0.044434,-0.197937,0.010000,-0.470000,0.020000,-0.173960,-0.437121,-0.007859,0.110671,0.203646,-0.008728,0.000000,
312698105,0.314529,16.124364,1,0.979004,0.022034,-0.044434,-0.197754,0.030000,-0.520000,0.080000,-0.180450,-0.492545,0.050383,0.230475,0.355912,0.049731,0.000000,
312710705,0.221206,16.129008,1,0.979065,0.022034,-0.044434,-0.197327,0.010000,-0.300000,0.030000,-0.109019,-0.280998,0.012431,0.229578,0.349282,0.012842,0.000000,
312718873,0.592407,16.119720,1,0.979248,0.022034,-0.044434,-0.196533,0.120000,0.110000,-0.030000,0.155251,0.055742,-0.013781,0.443230,0.668081,-0.013488,0.000000,
312728121,0.407836,16.119720,1,0.979431,0.022034,-0.044495,-0.195618,0.100000,-0.030000,0.080000,0.072852,-0.068250,0.085642,0.428934,0.642518,0.084550,0.000000,
312740709,-0.238160,16.124364,1,0.979614,0.021973,-0.044495,-0.194763,0.110000,0.110000,0.160000,0.127661,0.055244,0.174502,0.049555,0.153303,0.173510,0.000000,
312748880,0.314529,16.124364,1,0.979736,0.021912,-0.044495,-0.193970,0.150000,0.060000,-0.010000,0.161763,-0.001620,0.005464,0.204765,0.386666,0.007316,0.000000,
312758026,-0.146897,16.129008,1,0.979858,0.021912,-0.044556,-0.193298,0.250000,0.250000,-0.050000,0.329329,0.137173,-0.015001,0.004852,0.124339,-0.014755,0.000000,
312770604,0.314529,16.124364,1,0.979980,0.021912,-0.044556,-0.192871,0.110000,0.300000,-0.210000,0.234313,0.241005,-0.182248,0.186242,0.348975,-0.180403,0.000000,
312778791,-0.053589,16.124364,1,0.979980,0.021851,-0.044556,-0.192749,0.140000,0.210000,-0.020000,0.209882,0.141547,0.003746,0.049758,0.138229,0.001716,0.000000,
312788037,0.037658,16.129008,1,0.979980,0.021851,-0.044556,-0.192749,0.080000,0.120000,-0.010000,0.119796,0.080847,0.003562,0.044035,0.129237,0.003542,0.000000,
312797647,-0.053589,16.124364,1,0.979980,0.021912,-0.044556,-0.192932,-0.010000,-0.200000,-0.030000,-0.081580,-0.180345,-0.042668,-0.011217,0.056820,-0.042159,0.000000,
312810456,0.223770,16.119720,1,0.979919,0.021912,-0.044556,-0.193054,0.200000,-0.050000,-0.010000,0.166436,-0.122029,0.002814,0.126129,0.233342,0.002319,0.000000,
312818815,0.314529,16.124364,1,0.979919,0.021912,-0.044556,-0.193176,0.050000,-0.210000,-0.050000,-0.028236,-0.211866,-0.058444,0.237653,0.401964,-0.057774,0.000000,
312827924,-0.238160,16.124364,1,0.979919,0.021912,-0.044556,-0.193237,0.170000,-0.150000,0.030000,0.097241,-0.204139,0.034233,-0.034123,0.039837,0.033219,0.000000,
312840503,0.405776,16.129008,1,0.979858,0.021912,-0.044556,-0.193298,0.140000,-0.030000,0.050000,0.112887,-0.082322,0.058987,0.221913,0.365444,0.058703,0.000000,
312848702,0.039199,16.119720,1,0.979858,0.021912,-0.044556,-0.193420,0.190000,0.030000,0.030000,0.183468,-0.045435,0.046637,0.118740,0.204670,0.046770,0.000000,
312857946,0.130981,16.124364,1,0.979858,0.021912,-0.044556,-0.193604,-0.060000,0.020000,0.020000,-0.049631,0.040849,0.016375,0.127716,0.213979,0.016710,0.000000,
312870549,-0.053589,16.124364,1,0.979797,0.021912,-0.044495,-0.193726,-0.120000,-0.020000,-0.020000,-0.116158,0.027823,-0.030549,0.025088,0.079629,-0.030029,0.000000,
312878737,-0.238160,16.124364,1,0.979797,0.021973,-0.044434,-0.193787,-0.080000,0.100000,0.000000,-0.035897,0.122928,-0.000257,-0.127233,-0.152923,-0.000585,0.000000,
312887882,0.314529,16.124364,1,0.979797,0.021973,-0.044434,-0.193787,0.080000,0.100000,-0.070000,0.118146,0.063666,-0.057344,0.126964,0.177117,-0.056718,0.000000,
312900431,0.498580,16.124364,1,0.979797,0.021973,-0.044434,-0.193909,-0.100000,-0.060000,0.040000,-0.118591,-0.018270,0.028331,0.345007,0.450494,0.027394,0.000000,
312908629,0.317092,16.115076,1,0.979736,0.021973,-0.044434,-0.194031,0.130000,-0.170000,-0.060000,0.061132,-0.205166,-0.059746,0.332479,0.425449,-0.058785,0.000000,
312917873,0.039199,16.119720,1,0.979736,0.021973,-0.044373,-0.194214,0.090000,-0.180000,0.030000,0.011842,-0.201448,0.026058,0.166711,0.206520,0.025123,0.000000,
312930438,0.498580,16.124364,1,0.979675,0.021973,-0.044373,-0.194397,0.150000,-0.230000,0.010000,0.049961,-0.270079,0.007841,0.362082,0.451835,0.008031,0.000000,
312938609,-0.053589,16.124364,1,0.979675,0.021973,-0.044373,-0.194519,0.040000,-0.090000,0.030000,-0.000176,-0.099199,0.027560,0.124250,0.085364,0.027345,0.000000,
312947855,-0.146897,16.129008,1,0.979675,0.021973,-0.044373,-0.194519,0.130000,-0.160000,0.020000,0.057072,-0.198054,0.020443,-0.031855,-0.117086,0.020519,0.000000,
312960425,-0.146897,16.129008,1,0.979675,0.021973,-0.044373,-0.194397,-0.100000,0.030000,0.100000,-0.090228,0.063408,0.093479,-0.100145,-0.200945,0.092675,0.000000,
312968611,0.037658,16.129008,1,0.979675,0.021973,-0.044373,-0.194275,-0.060000,-0.020000,-0.080000,-0.055170,0.006550,-0.085518,-0.021720,-0.080018,-0.083554,0.000000,
312977767,0.405776,16.129008,1,0.979736,0.021973,-0.044373,-0.194092,0.010000,0.000000,-0.060000,0.014936,-0.002273,-0.058922,0.224890,0.239343,-0.059193,0.000000,
312990331,0.405776,16.129008,1,0.979736,0.021973,-0.044434,-0.193970,0.040000,-0.010000,-0.050000,0.037830,-0.023228,-0.047216,0.332950,0.371820,-0.047348,0.000000,
312998696,0.683166,16.124364,1,0.979797,0.021973,-0.044434,-0.193848,-0.060000,0.000000,0.000000,-0.055254,0.022909,-0.004713,0.539601,0.680388,-0.005183,0.000000,
313007825,-0.146897,16.129008,1,0.979797,0.021973,-0.044434,-0.193726,0.010000,0.040000,0.050000,0.019538,0.031851,0.052951,0.148508,0.162050,0.052310,0.000000,
313020440,0.221206,16.129008,1,0.979797,0.021912,-0.044434,-0.193604,0.160000,-0.070000,-0.120000,0.132420,-0.122610,-0.111047,0.192772,0.214281,-0.109247,0.000000,
313028608,0.133026,16.115076,1,0.979858,0.021851,-0.044434,-0.193604,0.020000,-0.470000,-0.130000,-0.146567,-0.438615,-0.156002,0.159799,0.160171,-0.155487,0.000000,
313037743,0.314529,16.124364,1,0.979919,0.021851,-0.044434,-0.193237,-0.100000,0.710000,0.060000,0.169640,0.692825,0.094439,0.250789,0.276824,0.091685,0.000000,
313047352,-0.239701,16.133652,1,0.979919,0.021790,-0.044434,-0.193054,0.590000,0.470000,0.400000,0.682410,0.199929,0.472590,-0.030323,-0.079107,0.468393,0.000000,
313060141,0.221206,16.129008,1,0.979858,0.021790,-0.044434,-0.193420,-0.130000,0.190000,-0.140000,-0.034737,0.228703,-0.138159,0.114882,0.108089,-0.131475,0.000000,
313068525,0.498580,16.124364,1,0.979858,0.021790,-0.044434,-0.193420,0.130000,-0.070000,-0.190000,0.111508,-0.109377,-0.183037,0.338954,0.451302,-0.182469,0.000000,
313077770,0.405776,16.129008,1,0.979797,0.021790,-0.044373,-0.193726,-0.230000,-0.570000,-0.150000,-0.412805,-0.435091,-0.201462,0.381810,0.500511,-0.201253,0.000000,
313090336,0.498580,16.124364,1,0.979797,0.021790,-0.044373,-0.193726,0.110000,0.140000,-0.030000,0.157049,0.088153,-0.012833,0.455951,0.587542,-0.014909,0.000000,
313098536,0.405776,16.129008,1,0.979797,0.021790,-0.044495,-0.193665,0.190000,0.010000,0.140000,0.165383,-0.066799,0.154875,0.431615,0.544351,0.153004,0.000000,
313107671,0.133026,16.115076,1,0.979797,0.021790,-0.044556,-0.193787,0.210000,-0.330000,0.010000,0.067762,-0.385310,0.006723,0.263816,0.320228,0.008335,0.000000,
313120234,-0.053589,16.124364,1,0.979797,0.021667,-0.044495,-0.193787,0.200000,-0.170000,-0.070000,0.126649,-0.231642,-0.064048,0.083487,0.085764,-0.063250,0.000000,
313128426,0.683166,16.124364,1,0.979797,0.021667,-0.044556,-0.193665,-0.050000,-0.370000,-0.040000,-0.181925,-0.321818,-0.065845,0.432628,0.614060,-0.065816,0.000000,
313137669,-0.053589,16.124364,1,0.979858,0.021667,-0.044556,-0.193481,-0.020000,-0.020000,0.020000,-0.027882,-0.011366,0.017129,0.156951,0.250171,0.016215,0.000000,
313150312,-0.146897,16.129008,1,0.979919,0.021606,-0.044556,-0.193176,-0.010000,0.040000,0.010000,0.004896,0.040531,0.011544,-0.016409,0.025400,0.011595,0.000000,
313158490,-0.053589,16.124364,1,0.979980,0.021606,-0.044556,-0.192871,0.030000,0.100000,-0.020000,0.067172,0.081572,-0.011579,-0.037810,-0.007681,-0.011323,0.000000,
313167626,0.683166,16.124364,1,0.980042,0.021606,-0.044556,-0.192627,-0.030000,-0.150000,-0.030000,-0.081131,-0.126588,-0.041150,0.379286,0.532916,-0.040822,0.000000,
313187936,-0.146897,16.129008,1,0.980164,0.021545,-0.044617,-0.191895,0.210000,0.030000,0.110000,0.194395,-0.054400,0.127872,0.081533,0.148144,0.126013,0.000000,
313197420,0.223770,16.119720,1,0.980225,0.021484,-0.044678,-0.191406,0.280000,-0.080000,0.050000,0.223709,-0.180920,0.067238,0.167172,0.321257,0.067886,0.000000,
313207132,0.223770,16.119720,1,0.980347,0.021423,-0.044739,-0.191101,0.210000,-0.170000,0.020000,0.128531,-0.237013,0.026555,0.203348,0.374442,0.027011,0.000000,
313219936,-0.328904,16.119720,1,0.980408,0.021362,-0.044739,-0.190796,0.120000,-0.120000,0.120000,0.054613,-0.159255,0.121884,-0.102533,-0.064960,0.120838,0.000000,
313228319,0.592407,16.119720,1,0.980408,0.021362,-0.044678,-0.190613,-0.080000,-0.150000,0.020000,-0.131559,-0.109407,0.004707,0.301594,0.571381,0.005987,0.000000,
313237551,0.130981,16.124364,1,0.980469,0.021301,-0.044617,-0.190430,-0.170000,-0.150000,0.030000,-0.215590,-0.075924,0.007545,0.208067,0.441610,0.007527,0.000000,
313250113,0.223770,16.119720,1,0.980469,0.021362,-0.044678,-0.190308,-0.130000,-0.120000,-0.010000,-0.163660,-0.062188,-0.027351,0.222733,0.452785,-0.026966,0.000000,
313258311,0.498580,16.124364,1,0.980530,0.021484,-0.044678,-0.190063,0.050000,0.360000,-0.050000,0.184467,0.316183,-0.024500,0.386668,0.691364,-0.024527,0.000000,
313267449,0.683166,16.124364,1,0.980591,0.021606,-0.044678,-0.189758,0.010000,0.330000,0.090000,0.122789,0.299898,0.109930,0.564466,0.909542,0.108448,0.000000,
313280011,-0.056153,16.133652,1,0.980652,0.021545,-0.044739,-0.189453,0.170000,0.320000,0.060000,0.269649,0.231718,0.092180,0.215665,0.464996,0.092359,0.000000,
313288199,-0.238160,16.124364,1,0.980652,0.021484,-0.044678,-0.189392,0.100000,-0.160000,-0.160000,0.048624,-0.181677,-0.160714,-0.044063,0.073151,-0.157926,0.000000,
313297432,0.221206,16.129008,1,0.980652,0.021423,-0.044678,-0.189270,0.190000,-0.540000,0.000000,-0.023794,-0.571710,-0.016714,0.110031,0.266843,-0.018270,0.000000,
313307026,-0.053589,16.124364,1,0.980713,0.021423,-0.044678,-0.188904,0.220000,-0.100000,0.110000,0.156030,-0.177472,0.121068,0.017958,0.149781,0.119533,0.000000,
313319852,0.314529,16.124364,1,0.980835,0.021362,-0.044678,-0.188477,0.140000,-0.210000,0.070000,0.045554,-0.248672,0.068462,0.192218,0.368877,0.069025,0.000000,
313328225,0.223770,16.119720,1,0.980957,0.021362,-0.044617,-0.187927,0.130000,0.010000,0.030000,0.121101,-0.039648,0.040776,0.213650,0.397028,0.041087,0.000000,
313337360,0.039199,16.119720,1,0.981079,0.021362,-0.044556,-0.187256,-0.370000,-0.040000,-0.110000,-0.346707,0.102269,-0.141194,0.116318,0.265112,-0.139185,0.000000,
313349952,-0.053589,16.124364,1,0.981140,0.021362,-0.044434,-0.186768,-0.300000,-0.180000,-0.110000,-0.333044,-0.053976,-0.143762,0.020984,0.139776,-0.143711,0.000000,
313358121,-0.513459,16.119720,1,0.981262,0.021362,-0.044434,-0.186340,-0.070000,-0.120000,-0.030000,-0.105663,-0.085064,-0.042419,-0.288296,-0.324577,-0.043535,0.000000,
313367368,0.039199,16.119720,1,0.981323,0.021301,-0.044495,-0.185913,-0.110000,-0.020000,0.030000,-0.112078,0.020988,0.019952,-0.101861,-0.083724,0.019253,0.000000,
313379990,0.130981,16.124364,1,0.981384,0.021362,-0.044556,-0.185608,0.090000,-0.090000,-0.110000,0.061318,-0.113883,-0.107568,0.032280,0.084143,-0.106171,0.000000,
313388170,-0.238160,16.124364,1,0.981445,0.021423,-0.044617,-0.185303,0.100000,0.060000,0.060000,0.108712,0.017729,0.071185,-0.124122,-0.150639,0.069231,0.000000,
313397305,0.592407,16.119720,1,0.981506,0.021484,-0.044678,-0.184937,0.250000,0.080000,0.120000,0.249312,-0.019862,0.144045,0.288942,0.378635,0.143221,0.000000,
313409886,0.405776,16.129008,1,0.981567,0.021484,-0.044800,-0.184631,0.400000,0.160000,0.170000,0.412509,-0.001166,0.210562,0.361551,0.465791,0.209820,0.000000,
313418055,0.221206,16.129008,1,0.981628,0.021484,-0.044800,-0.184326,0.500000,0.590000,0.420000,0.636123,0.356682,0.492573,0.283860,0.347998,0.489457,0.000000,
313427303,0.130981,16.124364,1,0.981628,0.021484,-0.044739,-0.184326,0.140000,0.200000,0.050000,0.197130,0.134008,0.072676,0.198649,0.236149,0.077269,0.000000,
313439874,-0.056153,16.133652,1,0.981567,0.021484,-0.044617,-0.184509,-0.110000,0.200000,-0.060000,-0.024282,0.227795,-0.056740,0.053655,0.049779,-0.055263,0.000000,
313448060,0.039199,16.119720,1,0.981567,0.021362,-0.044556,-0.184753,-0.280000,0.180000,-0.210000,-0.174805,0.274985,-0.220743,0.045658,0.035377,-0.218920,0.000000,
313457303,0.405776,16.129008,1,0.981506,0.021301,-0.044556,-0.184998,-0.020000,0.170000,-0.270000,0.068605,0.172349,-0.260364,0.254299,0.298895,-0.259907,0.000000,
313469868,-0.146897,16.129008,1,0.981445,0.021179,-0.044495,-0.185303,-0.110000,0.120000,-0.290000,-0.030985,0.159143,-0.290368,0.025056,0.002369,-0.290032,0.000000,
313478056,0.221206,16.129008,1,0.981384,0.021057,-0.044495,-0.185608,0.050000,-0.180000,-0.040000,-0.015075,-0.184755,-0.046243,0.139016,0.173003,-0.048929,0.000000,
313487187,0.221206,16.129008,1,0.981262,0.020935,-0.044434,-0.186157,0.000000,-0.600000,0.110000,-0.228536,-0.560588,0.074892,0.188140,0.234461,0.073527,0.000000,
313499759,0.128417,16.133652,1,0.981201,0.020996,-0.044495,-0.186707,0.100000,-0.520000,0.060000,-0.102630,-0.521589,0.037592,0.156416,0.191573,0.037988,0.000000,
313507957,0.317092,16.115076,1,0.981079,0.021057,-0.044617,-0.187073,0.330000,-0.090000,-0.080000,0.280356,-0.203403,-0.058542,0.251317,0.331078,-0.057478,0.000000,
313517200,-0.148957,16.138295,1,0.981079,0.021057,-0.044617,-0.187317,0.250000,0.090000,-0.020000,0.266280,-0.008260,0.005234,0.022812,0.034846,0.004543,0.000000,
313529764,-0.053589,16.124364,1,0.981018,0.021057,-0.044556,-0.187500,0.300000,-0.040000,0.060000,0.257356,-0.149556,0.081245,-0.021113,-0.020051,0.080399,0.000000,
313537932,0.037658,16.129008,1,0.981018,0.021057,-0.044556,-0.187622,0.160000,-0.040000,0.110000,0.122965,-0.099054,0.119867,0.012868,0.032294,0.119432,0.000000,
313547164,0.130981,16.124364,1,0.981018,0.021118,-0.044495,-0.187683,-0.350000,-0.080000,-0.060000,-0.347552,0.056733,-0.092140,0.081491,0.118900,-0.089809,0.000000,
313556751,0.498580,16.124364,1,0.981018,0.021118,-0.044373,-0.187683,-0.460000,-0.130000,-0.260000,-0.448713,0.055970,-0.302697,0.323926,0.421281,-0.300351,0.000000,
313569560,0.589843,16.129008,1,0.981018,0.021118,-0.044373,-0.187500,-0.200000,-0.510000,-0.060000,-0.366115,-0.398247,-0.105156,0.483879,0.618003,-0.107307,0.000000,
313577958,-0.239701,16.133652,1,0.981079,0.021057,-0.044495,-0.187195,0.010000,-0.050000,0.020000,-0.010916,-0.050636,0.017799,0.068279,-0.026926,0.016420,0.000000,
313587094,-0.146897,16.129008,1,0.981140,0.021118,-0.044556,-0.186890,0.350000,-0.250000,0.050000,0.228183,-0.362567,0.063071,-0.056521,-0.189585,0.062557,0.000000,
313599632,0.405776,16.129008,1,0.981201,0.021179,-0.044678,-0.186646,0.260000,-0.180000,-0.060000,0.180993,-0.261527,-0.049450,0.209607,0.150030,-0.048215,0.000000,
313607819,0.221206,16.129008,1,0.981201,0.021301,-0.044678,-0.186462,0.130000,-0.360000,-0.090000,-0.001997,-0.380194,-0.100241,0.217571,0.159367,-0.099667,0.000000,
313617084,0.312469,16.133652,1,0.981262,0.021484,-0.044739,-0.186279,0.490000,0.750000,-0.060000,0.732522,0.518712,0.023520,0.273955,0.230089,0.022162,0.000000,
313629672,0.405776,16.129008,1,0.981323,0.021606,-0.044800,-0.185913,0.310000,1.110000,0.130000,0.677721,0.915172,0.219684,0.353435,0.329791,0.217507,0.000000,
313637851,0.130981,16.124364,1,0.981323,0.021606,-0.044800,-0.185791,0.060000,0.690000,0.080000,0.298208,0.617665,0.125144,0.226890,0.135423,0.126162,0.000000,
313647004,0.683166,16.124364,1,0.981262,0.021545,-0.044617,-0.186035,-0.280000,0.090000,-0.020000,-0.224907,0.186966,-0.036875,0.492091,0.474505,-0.035078,0.000000,
313659653,0.037658,16.129008,1,0.981262,0.021423,-0.044495,-0.186401,-0.430000,-0.100000,-0.100000,-0.425277,0.067708,-0.139490,0.234166,0.140479,-0.138339,0.000000,
313667840,0.037658,16.129008,1,0.981201,0.021484,-0.044495,-0.186584,-0.260000,-0.030000,-0.060000,-0.246075,0.069347,-0.082088,0.121135,-0.033057,-0.082708,0.000000,
313676963,-0.424256,16.133652,1,0.981140,0.021484,-0.044556,-0.186829,-0.040000,0.190000,0.020000,0.030334,0.190792,0.027899,-0.194684,-0.439173,0.026680,0.000000,
313689535,-0.146897,16.129008,1,0.981018,0.021484,-0.044678,-0.187378,0.220000,-0.030000,0.010000,0.191744,-0.109423,0.025698,-0.172454,-0.403934,0.025709,0.000000,
313697718,-0.331467,16.129008,1,0.980896,0.021484,-0.044739,-0.188232,0.440000,-0.480000,-0.020000,0.232648,-0.608362,-0.013158,-0.268139,-0.543429,-0.012729,0.000000,
313706871,-0.146897,16.129008,1,0.980713,0.021484,-0.044800,-0.189148,0.440000,-0.390000,0.030000,0.259931,-0.526577,0.041895,-0.202971,-0.452849,0.041293,0.000000,
313719452,0.312469,16.133652,1,0.980591,0.021606,-0.044800,-0.189758,0.370000,-0.030000,0.130000,0.318274,-0.169522,0.157050,0.090670,-0.073641,0.155774,0.000000,
313727621,0.405776,16.129008,1,0.980469,0.021729,-0.044800,-0.190125,0.240000,0.070000,0.100000,0.238036,-0.027629,0.122780,0.273138,0.204010,0.123144,0.000000,
313736895,0.130981,16.124364,1,0.980469,0.021729,-0.044678,-0.190308,0.010000,0.010000,-0.110000,0.023495,0.008331,-0.108067,0.192773,0.097215,-0.105520,0.000000,
313749465,0.497039,16.133652,1,0.980469,0.021667,-0.044617,-0.190430,-0.300000,-0.190000,-0.060000,-0.341886,-0.061905,-0.094778,0.370724,0.320468,-0.094896,0.000000,
313757652,0.405776,16.129008,1,0.980408,0.021606,-0.044617,-0.190552,-0.450000,-0.290000,0.050000,-0.528111,-0.100933,-0.003126,0.393714,0.351299,-0.004137,0.000000,
313766782,0.037658,16.129008,1,0.980408,0.021606,-0.044556,-0.190796,-0.420000,-0.250000,0.030000,-0.483670,-0.074389,-0.018220,0.190930,0.085465,-0.018065,0.000000,
313779345,-0.239701,16.133652,1,0.980347,0.021667,-0.044556,-0.191040,-0.160000,-0.010000,-0.130000,-0.138979,0.054289,-0.142610,-0.058080,-0.231678,-0.141237,0.000000,
313787534,0.035613,16.138295,1,0.980286,0.021667,-0.044617,-0.191284,-0.020000,0.020000,-0.040000,-0.007164,0.027073,-0.040196,-0.005545,-0.149733,-0.041309,0.000000,
313796778,0.681106,16.133652,1,0.980225,0.021667,-0.044678,-0.191528,0.200000,-0.020000,0.070000,0.170345,-0.095773,0.084321,0.390374,0.363017,0.082936,0.000000,
313809371,0.498580,16.124364,1,0.980225,0.021606,-0.044739,-0.191650,0.350000,-0.070000,0.150000,0.282324,-0.200753,0.172893,0.457813,0.444986,0.171902,0.000000,
313817537,0.314529,16.124364,1,0.980225,0.021606,-0.044739,-0.191589,0.410000,-0.110000,0.000000,0.337156,-0.256611,0.026021,0.378192,0.318843,0.027628,0.000000,
313826671,-0.242768,16.142939,1,0.980225,0.021606,-0.044739,-0.191406,0.310000,-0.420000,0.000000,0.129255,-0.505758,-0.000358,0.021856,-0.144594,-0.000050,0.000000,
313836255,0.405776,16.129008,1,0.980347,0.021545,-0.044739,-0.190979,0.200000,-0.440000,0.070000,0.013983,-0.484532,0.059447,0.242587,0.137404,0.058791,0.000000,
313849078,-0.239701,16.133652,1,0.980469,0.021545,-0.044678,-0.190369,-0.260000,-0.570000,-0.090000,-0.443178,-0.428327,-0.143981,-0.036025,-0.225319,-0.141747,0.000000,
313857463,-0.426819,16.142939,1,0.980591,0.021545,-0.044617,-0.189819,-1.010000,0.190000,-0.300000,-0.834125,0.561661,-0.367396,-0.265225,-0.579153,-0.364909,0.000000,
313866684,0.218643,16.138295,1,0.980652,0.021606,-0.044556,-0.189270,0.580000,0.590000,0.310000,0.724398,0.322848,0.389374,0.009609,-0.206333,0.381062,0.000000,
313879256,0.589843,16.129008,1,0.980713,0.021729,-0.044617,-0.189026,-0.350000,0.280000,0.020000,-0.222240,0.389656,0.008803,0.344149,0.225662,0.012906,0.000000,
313887442,0.405776,16.129008,1,0.980774,0.021667,-0.044678,-0.188782,0.050000,-0.030000,-0.240000,0.058182,-0.040294,-0.236625,0.381801,0.278215,-0.233875,0.000000,
313896577,0.037658,16.129008,1,0.980774,0.021545,-0.044617,-0.188660,-0.010000,-0.020000,-0.060000,-0.010872,-0.013312,-0.061681,0.185223,0.020002,-0.063579,0.000000,
313909142,0.221206,16.129008,1,0.980835,0.021545,-0.044739,-0.188354,0.230000,-0.290000,0.010000,0.105208,-0.354834,0.011125,0.206373,0.046568,0.010302,0.000000,
313917330,0.035613,16.138295,1,0.980896,0.021484,-0.044800,-0.187927,0.610000,-0.410000,0.130000,0.401623,-0.610018,0.153860,0.107546,-0.102470,0.152278,0.000000,
313926545,0.221206,16.129008,1,0.981018,0.021484,-0.044922,-0.187378,0.520000,-0.340000,0.040000,0.353197,-0.509001,0.061391,0.172369,-0.016976,0.062393,0.000000,
313939170,0.035613,16.138295,1,0.981079,0.021484,-0.044922,-0.187195,0.190000,-0.250000,0.160000,0.069183,-0.306457,0.159682,0.092728,-0.115838,0.158610,0.000000,
313947336,0.126357,16.142939,1,0.981140,0.021484,-0.044861,-0.186890,-0.010000,-0.040000,0.160000,-0.039223,-0.037545,0.156051,0.111329,-0.084823,0.156079,0.000000,
313956508,0.128417,16.133652,1,0.981201,0.021484,-0.044800,-0.186584,-0.110000,0.060000,0.160000,-0.095395,0.092185,0.153954,0.120445,-0.070628,0.153977,0.000000,
313969069,0.218643,16.138295,1,0.981201,0.021484,-0.044800,-0.186340,-0.150000,0.240000,-0.070000,-0.044967,0.280034,-0.067515,0.176585,0.000824,-0.065074,0.000000,
313977257,0.221206,16.129008,1,0.981262,0.021484,-0.044800,-0.186218,-0.200000,0.300000,-0.570000,-0.021591,0.366916,-0.565515,0.202499,0.035487,-0.560000,0.000000,
313986465,-0.239701,16.133652,1,0.981323,0.021423,-0.044800,-0.185913,-0.110000,0.270000,-0.060000,0.001799,0.292959,-0.052650,-0.053040,-0.295701,-0.058240,0.000000,
313999038,0.037658,16.129008,1,0.981323,0.021362,-0.044800,-0.185730,-0.080000,-0.190000,-0.210000,-0.122924,-0.142093,-0.226493,-0.004094,-0.231619,-0.224638,0.000000,
314007242,0.037658,16.129008,1,0.981384,0.021362,-0.044800,-0.185547,-0.190000,0.170000,0.050000,-0.119362,0.226433,0.044507,0.018269,-0.194392,0.041541,0.000000,
314016486,-0.239701,16.133652,1,0.981384,0.021240,-0.044800,-0.185486,0.070000,-0.060000,-0.060000,0.048921,-0.079931,-0.057600,-0.132811,-0.388211,-0.056507,0.000000,
314029049,0.035613,16.138295,1,0.981384,0.021179,-0.044861,-0.185547,0.410000,-0.130000,0.080000,0.325349,-0.273021,0.104917,-0.039842,-0.262238,0.103138,0.000000,
314037238,0.681106,16.133652,1,0.981323,0.021118,-0.044983,-0.185852,0.620000,-0.330000,0.130000,0.442418,-0.537453,0.160033,0.376945,0.375810,0.159406,0.000000,
314046468,-0.148957,16.138295,1,0.981262,0.021118,-0.045044,-0.186218,0.490000,-0.180000,0.000000,0.388588,-0.347362,0.028982,0.076099,-0.017781,0.030419,0.000000,
314059041,-0.056153,16.133652,1,0.981201,0.021179,-0.044983,-0.186523,0.270000,-0.100000,-0.070000,0.220440,-0.190561,-0.053787,-0.000953,-0.116251,-0.052859,0.000000,
314067240,0.405776,16.129008,1,0.981140,0.021240,-0.044861,-0.186829,-0.040000,0.100000,-0.060000,0.005182,0.109164,-0.057064,0.234441,0.242609,-0.057018,0.000000,
314076391,0.312469,16.133652,1,0.981079,0.021240,-0.044800,-0.187073,-0.410000,0.100000,0.050000,-0.347934,0.242942,0.022815,0.281810,0.301303,0.021936,0.000000,
314088973,0.218643,16.138295,1,0.981079,0.021240,-0.044800,-0.187134,-0.190000,0.110000,0.060000,-0.141500,0.170829,0.050942,0.248917,0.255432,0.050623,0.000000,
314097142,0.405776,16.129008,1,0.981079,0.021240,-0.044800,-0.187317,-0.110000,-0.080000,-0.050000,-0.126297,-0.032430,-0.063225,0.342144,0.393371,-0.061971,0.000000,
314106437,0.312469,16.133652,1,0.981018,0.021301,-0.044800,-0.187439,-0.130000,-0.200000,-0.070000,-0.186802,-0.135958,-0.091762,0.328624,0.370321,-0.091434,0.000000,
314119011,0.310424,16.142939,1,0.981018,0.021301,-0.044800,-0.187500,-0.240000,-0.270000,-0.020000,-0.319057,-0.161521,-0.054900,0.322703,0.356122,-0.055303,0.000000,
314127197,0.126357,16.142939,1,0.980957,0.021362,-0.044800,-0.187683,0.180000,0.090000,0.050000,0.194768,0.015699,0.069417,0.211521,0.182956,0.068042,0.000000,
314136332,0.221206,16.129008,1,0.981018,0.021423,-0.044861,-0.187561,0.420000,0.380000,0.000000,0.527869,0.197547,0.055960,0.218798,0.190729,0.056093,0.000000,
314145911,0.037658,16.129008,1,0.980957,0.021423,-0.044922,-0.187561,0.550000,0.090000,0.040000,0.538181,-0.120869,0.089154,0.115824,0.058296,0.088790,0.000000,
314158709,0.126357,16.142939,1,0.980957,0.021301,-0.044922,-0.187744,0.270000,-0.320000,0.150000,0.118201,-0.400857,0.152124,0.122706,0.068147,0.151426,0.000000,
314167091,-0.056153,16.133652,1,0.980957,0.021240,-0.044800,-0.187805,0.040000,-0.400000,0.060000,-0.115356,-0.387728,0.039502,0.019246,-0.092338,0.040735,0.000000,
314176311,-0.608826,16.133652,1,0.980957,0.021362,-0.044739,-0.187805,-0.290000,-0.210000,0.010000,-0.346315,-0.087839,-0.025507,-0.345271,-0.572889,-0.024777,0.000000,
314196605,-0.239701,16.133652,1,0.981018,0.021423,-0.044678,-0.187561,-0.140000,0.080000,0.000000,-0.100304,0.126086,-0.006444,-0.294947,-0.494250,-0.006646,0.000000,
314206105,0.312469,16.133652,1,0.981018,0.021423,-0.044678,-0.187439,-0.030000,0.040000,0.030000,-0.016009,0.047484,0.029815,0.060148,0.244761,0.029413,0.000000,
314215820,0.221206,16.129008,1,0.981018,0.021423,-0.044678,-0.187378,-0.110000,0.060000,-0.010000,-0.078936,0.096636,-0.015184,0.156599,0.395575,-0.014692,0.000000,
314229839,0.128417,16.133652,1,0.981079,0.021423,-0.044678,-0.187256,0.180000,0.040000,0.040000,0.177451,-0.030335,0.056490,0.145671,0.372986,0.055705,0.000000,
314237433,0.130981,16.124364,1,0.981079,0.021423,-0.044678,-0.187195,0.180000,0.040000,0.040000,0.177455,-0.030312,0.056490,0.139941,0.359206,0.056481,0.000000,
314246348,0.498580,16.124364,1,0.981079,0.021301,-0.044800,-0.187073,0.270000,-0.200000,0.100000,0.167399,-0.287947,0.109379,0.350643,0.628417,0.108796,0.000000,
314258794,-0.238160,16.124364,1,0.981140,0.021179,-0.044739,-0.186951,0.300000,-0.270000,0.070000,0.172591,-0.363246,0.077881,0.016813,0.209205,0.078221,0.000000,
314266961,0.130981,16.124364,1,0.981140,0.021179,-0.044739,-0.186890,0.080000,-0.180000,-0.060000,0.014163,-0.195264,-0.063807,0.084791,0.305934,-0.062242,0.000000,
314276097,0.314529,16.124364,1,0.981140,0.021240,-0.044678,-0.186768,-0.120000,-0.060000,-0.020000,-0.131113,-0.011054,-0.032973,0.220411,0.472228,-0.033295,0.000000,
314288662,0.128417,16.133652,1,0.981201,0.021179,-0.044678,-0.186707,-0.250000,-0.010000,0.010000,-0.236173,0.082529,-0.010573,0.172954,0.406332,-0.010824,0.000000,
314296861,0.498580,16.124364,1,0.981201,0.021179,-0.044678,-0.186646,-0.230000,-0.040000,0.000000,-0.227632,0.047501,-0.020677,0.365364,0.685915,-0.020568,0.000000,
314306103,0.035613,16.138295,1,0.981201,0.021179,-0.044678,-0.186462,-0.070000,-0.080000,-0.050000,-0.089196,-0.047374,-0.059998,0.180987,0.444452,-0.059563,0.000000,
314318672,0.312469,16.133652,1,0.981262,0.021179,-0.044678,-0.186218,-0.130000,0.000000,0.010000,-0.121421,0.047506,-0.000422,0.262907,0.539475,-0.001074,0.000000,
314326858,0.218643,16.138295,1,0.981323,0.021179,-0.044678,-0.185852,-0.010000,0.040000,0.030000,0.002379,0.040119,0.031382,0.241617,0.501497,0.031024,0.000000,
314336102,0.314529,16.124364,1,0.981384,0.021118,-0.044678,-0.185486,0.150000,0.030000,-0.020000,0.151856,-0.026486,-0.006183,0.288425,0.554867,-0.005773,0.000000,
314348667,0.128417,16.133652,1,0.981445,0.021118,-0.044739,-0.185181,0.310000,-0.110000,-0.020000,0.249635,-0.215127,-0.001486,0.202497,0.438904,-0.001533,0.000000,
314356867,0.405776,16.129008,1,0.981506,0.021118,-0.044739,-0.185059,0.240000,-0.080000,-0.020000,0.195603,-0.161590,-0.005342,0.324159,0.614806,-0.005300,0.000000,
314366004,0.035613,16.138295,1,0.981506,0.021118,-0.044739,-0.185059,0.330000,0.040000,0.050000,0.315750,-0.084524,0.078478,0.162897,0.403501,0.077555,0.000000,
314375590,-0.424256,16.133652,1,0.981445,0.021118,-0.044739,-0.185181,0.050000,0.200000,0.040000,0.114865,0.166841,0.055408,-0.172816,-0.019650,0.055652,0.000000,
314388418,-0.333512,16.138295,1,0.981384,0.021118,-0.044678,-0.185486,-0.010000,0.120000,-0.010000,0.035145,0.115544,-0.003787,-0.266447,-0.138074,-0.003132,0.000000,
314396782,-0.056153,16.133652,1,0.981323,0.021179,-0.044678,-0.185852,-0.080000,0.020000,0.020000,-0.068808,0.047434,0.014681,-0.145340,0.047949,0.014484,0.000000,
314405974,0.405776,16.129008,1,0.981262,0.021179,-0.044678,-0.186218,-0.070000,-0.080000,-0.020000,-0.092040,-0.048167,-0.030144,0.174065,0.461461,-0.029652,0.000000,
314418530,-0.148957,16.138295,1,0.981201,0.021179,-0.044678,-0.186523,0.060000,0.100000,0.130000,0.079575,0.067640,0.139974,-0.007728,0.226825,0.138105,0.000000,
314426806,0.126357,16.142939,1,0.981140,0.021240,-0.044678,-0.186829,-0.170000,-0.220000,-0.070000,-0.230998,-0.140048,-0.096054,0.072043,0.342744,-0.093474,0.000000,
314435932,0.035613,16.138295,1,0.981079,0.021179,-0.044678,-0.187195,0.210000,-0.150000,-0.100000,0.149191,-0.214402,-0.091509,0.054093,0.314888,-0.091531,0.000000,
314448556,0.312469,16.133652,1,0.981018,0.021179,-0.044678,-0.187378,-0.020000,-0.290000,-0.060000,-0.118847,-0.260496,-0.078207,0.208084,0.501378,-0.078354,0.000000,
314456756,0.218643,16.138295,1,0.981018,0.021118,-0.044678,-0.187561,-0.080000,-0.150000,0.050000,-0.133748,-0.110955,0.034648,0.218330,0.510871,0.033402,0.000000,
314465891,0.126357,16.142939,1,0.981018,0.021118,-0.044678,-0.187561,0.070000,0.000000,0.070000,0.058105,-0.027619,0.075240,0.169800,0.443555,0.074779,0.000000,
314478454,0.035613,16.138295,1,0.981018,0.021118,-0.044678,-0.187500,0.140000,0.090000,0.040000,0.158714,0.030837,0.056205,0.097470,0.346895,0.056410,0.000000,
314486644,-0.333512,16.138295,1,0.981018,0.021118,-0.044678,-0.187378,0.260000,0.180000,0.020000,0.304629,0.070628,0.051108,-0.150020,-0.027579,0.051166,0.000000,
314495908,0.126357,16.142939,1,0.981018,0.021118,-0.044678,-0.187378,0.090000,0.000000,0.010000,0.082365,-0.033505,0.017128,0.009612,0.176751,0.017503,0.000000,
314508478,0.218643,16.138295,1,0.981018,0.021118,-0.044678,-0.187500,-0.050000,0.020000,-0.020000,-0.037053,0.037558,-0.022726,0.133225,0.329395,-0.022282,0.000000,
314516663,-0.056153,16.133652,1,0.981018,0.021118,-0.044678,-0.187561,-0.070000,0.020000,-0.060000,-0.051738,0.045948,-0.064125,0.025906,0.163472,-0.063664,0.000000,
314525906,-0.520127,16.147583,1,0.981018,0.021118,-0.044678,-0.187561,0.050000,-0.080000,0.010000,0.016038,-0.093041,0.009282,-0.288477,-0.240740,0.008479,0.000000,
314538469,0.405776,16.129008,1,0.981018,0.021118,-0.044678,-0.187622,0.140000,-0.120000,0.050000,0.080857,-0.164479,0.053935,0.111682,0.268035,0.053434,0.000000,
314546633,0.035613,16.138295,1,0.981018,0.021057,-0.044678,-0.187683,0.100000,-0.140000,0.010000,0.040310,-0.167271,0.009795,0.069682,0.201644,0.010276,0.000000,
314555816,0.497039,16.133652,1,0.980957,0.021057,-0.044678,-0.187744,0.030000,-0.070000,-0.020000,0.004025,-0.075619,-0.021576,0.318745,0.517733,-0.021225,0.000000,
314568385,0.035613,16.138295,1,0.980957,0.021057,-0.044678,-0.187805,0.090000,0.160000,0.000000,0.141944,0.115241,0.016472,0.160846,0.311376,0.016057,0.000000,
314576550,0.221206,16.129008,1,0.980957,0.021057,-0.044739,-0.187927,0.160000,0.130000,-0.040000,0.199571,0.062389,-0.019470,0.198451,0.363957,-0.019079,0.000000,
314585814,0.033050,16.147583,1,0.980896,0.021057,-0.044739,-0.188049,0.130000,0.230000,0.000000,0.204702,0.165326,0.023752,0.106134,0.241685,0.023280,0.000000,
314598373,-0.058213,16.142939,1,0.980896,0.021118,-0.044739,-0.188232,0.090000,0.070000,0.080000,0.101321,0.029606,0.090871,0.013728,0.122226,0.090126,0.000000,
314606561,0.033050,16.147583,1,0.980835,0.021118,-0.044739,-0.188416,-0.060000,-0.170000,0.020000,-0.119926,-0.135980,0.005205,0.025954,0.139184,0.006141,0.000000,
314615801,-0.148957,16.138295,1,0.980835,0.021118,-0.044739,-0.188599,-0.060000,-0.180000,-0.060000,-0.116002,-0.143250,-0.074989,-0.073960,0.008581,-0.074094,0.000000,
314625400,0.403213,16.138295,1,0.980835,0.021118,-0.044739,-0.188599,-0.150000,-0.300000,-0.010000,-0.248195,-0.222367,-0.039411,0.202215,0.358457,-0.039793,0.000000,
314638203,0.310424,16.142939,1,0.980835,0.021118,-0.044739,-0.188477,-0.060000,-0.200000,-0.020000,-0.127150,-0.162824,-0.036348,0.269703,0.438830,-0.036386,0.000000,
314646571,0.035613,16.138295,1,0.980835,0.021118,-0.044739,-0.188354,0.100000,-0.120000,-0.010000,0.049349,-0.148271,-0.008964,0.137242,0.229684,-0.009266,0.000000,
314655706,0.312469,16.133652,1,0.980896,0.021057,-0.044739,-0.188110,0.140000,-0.010000,0.160000,0.110550,-0.065128,0.169815,0.240778,0.364159,0.167841,0.000000,
314668270,0.128417,16.133652,1,0.980957,0.021057,-0.044739,-0.187866,-0.020000,-0.060000,-0.090000,-0.031898,-0.046097,-0.094644,0.180082,0.280217,-0.091752,0.000000,
314676461,0.035613,16.138295,1,0.981018,0.021057,-0.044739,-0.187439,0.020000,0.000000,0.140000,0.005120,-0.010829,0.140913,0.098445,0.154507,0.138349,0.000000,
314685704,0.218643,16.138295,1,0.981079,0.020996,-0.044739,-0.187073,0.240000,0.370000,0.090000,0.348753,0.253028,0.130180,0.169425,0.245218,0.130270,0.000000,
314698267,0.401168,16.147583,1,0.981140,0.020996,-0.044739,-0.186707,0.000000,-0.160000,-0.020000,-0.056406,-0.148214,-0.029167,0.307103,0.415370,-0.027410,0.000000,
314706449,0.587798,16.138295,1,0.981262,0.020996,-0.044739,-0.186401,-0.030000,-0.080000,-0.120000,-0.045435,-0.060396,-0.126444,0.473579,0.660843,-0.125352,0.000000,
314715585,0.126357,16.142939,1,0.981262,0.020935,-0.044739,-0.186157,-0.110000,-0.310000,0.050000,-0.219390,-0.249071,0.023055,0.278746,0.402538,0.021420,0.000000,
314728206,0.312469,16.133652,1,0.981323,0.020935,-0.044739,-0.185974,-0.040000,-0.050000,0.010000,-0.056185,-0.032067,0.003864,0.303411,0.427249,0.004057,0.000000,
314736370,0.403213,16.138295,1,0.981384,0.020935,-0.044739,-0.185669,0.050000,0.000000,-0.090000,0.054955,-0.016112,-0.085559,0.364881,0.514306,-0.084571,0.000000,
314745620,0.128417,16.133652,1,0.981445,0.020874,-0.044739,-0.185425,0.080000,0.030000,-0.060000,0.090775,0.000107,-0.051574,0.232820,0.337786,-0.051938,0.000000,
314758206,0.494476,16.142939,1,0.981445,0.020874,-0.044739,-0.185181,0.220000,-0.010000,-0.030000,0.203281,-0.088952,-0.012810,0.389053,0.530361,-0.013241,0.000000,
314766378,0.035613,16.138295,1,0.981567,0.020874,-0.044617,-0.184814,-0.280000,0.070000,-0.010000,-0.233538,0.167512,-0.028293,0.188028,0.218978,-0.028127,0.000000,
314775530,0.035613,16.138295,1,0.981628,0.020874,-0.044617,-0.184387,-0.190000,0.090000,0.040000,-0.147723,0.151955,0.029795,0.101856,0.105631,0.029156,0.000000,
314788093,0.033050,16.147583,1,0.981689,0.020874,-0.044678,-0.184082,-0.070000,-0.120000,0.080000,-0.115756,-0.088295,0.067117,0.063231,0.056044,0.066698,0.000000,
314796262,0.035613,16.138295,1,0.981689,0.020813,-0.044739,-0.183899,0.390000,-0.060000,0.000000,0.340508,-0.197431,0.027833,0.047645,0.032016,0.028261,0.000000,
314805534,0.128417,16.133652,1,0.981750,0.020813,-0.044800,-0.183838,0.180000,-0.040000,-0.060000,0.158484,-0.101107,-0.047545,0.094675,0.091727,-0.046709,0.000000,
314818101,0.494476,16.142939,1,0.981689,0.020874,-0.044800,-0.183777,-0.090000,0.010000,-0.080000,-0.072319,0.043920,-0.086260,0.328053,0.385779,-0.085825,0.000000,
314826286,0.312469,16.133652,1,0.981689,0.020935,-0.044739,-0.183960,-0.240000,0.200000,0.010000,-0.151889,0.273175,0.002231,0.322156,0.372074,0.001261,0.000000,
314835457,0.312469,16.133652,1,0.981689,0.020996,-0.044678,-0.184082,-0.160000,0.110000,-0.030000,-0.106104,0.161319,-0.036308,0.319962,0.364508,-0.035894,0.000000,
314848020,-0.148957,16.138295,1,0.981628,0.020935,-0.044800,-0.184265,0.250000,0.050000,0.080000,0.242360,-0.046315,0.102549,0.052215,0.021252,0.101023,0.000000,
314856208,0.035613,16.138295,1,0.981567,0.020996,-0.044922,-0.184448,0.340000,0.130000,0.020000,0.360402,-0.003207,0.054765,0.042745,0.007096,0.055274,0.000000,
314865451,-0.335572,16.147583,1,0.981567,0.020996,-0.044983,-0.184631,0.070000,-0.090000,0.010000,0.031533,-0.109535,0.010385,-0.176091,-0.275220,0.010880,0.000000,
314878014,0.218643,16.138295,1,0.981506,0.020996,-0.044983,-0.184875,-0.070000,-0.130000,-0.040000,-0.108022,-0.094479,-0.052961,0.049732,0.015466,-0.052257,0.000000,
314886201,-0.335572,16.147583,1,0.981445,0.020996,-0.044983,-0.185181,-0.030000,-0.220000,-0.090000,-0.098727,-0.191546,-0.104704,-0.174024,-0.324927,-0.104126,0.000000,
314895442,0.035613,16.138295,1,0.981384,0.020996,-0.044983,-0.185425,0.040000,-0.200000,-0.040000,-0.031481,-0.199723,-0.048161,-0.055725,-0.168713,-0.048778,0.000000,
314905050,0.310424,16.142939,1,0.981384,0.020996,-0.045044,-0.185608,0.120000,0.060000,-0.170000,0.149345,0.016033,-0.156010,0.154532,0.100187,-0.154829,0.000000,
314917848,0.494476,16.142939,1,0.981384,0.020996,-0.045044,-0.185608,0.190000,0.030000,0.280000,0.160073,-0.048528,0.295672,0.353480,0.359548,0.290708,0.000000,
314926215,-0.058213,16.142939,1,0.981323,0.020935,-0.045044,-0.185730,-0.010000,0.490000,-0.020000,0.170346,0.459916,0.007624,0.117037,-0.010171,0.010744,0.000000,
314935345,0.494476,16.142939,1,0.981323,0.020935,-0.045044,-0.185791,-0.170000,-0.100000,-0.030000,-0.190964,-0.029968,-0.049341,0.335447,0.277268,-0.048679,0.000000,
314947939,0.310424,16.142939,1,0.981323,0.020874,-0.044983,-0.185974,0.060000,0.080000,-0.020000,0.086578,0.052868,-0.010454,0.324401,0.258610,-0.010876,0.000000,
314956125,-0.148957,16.138295,1,0.981262,0.020813,-0.045044,-0.186218,0.130000,0.160000,0.110000,0.168053,0.098364,0.129162,0.051451,-0.158787,0.127619,0.000000,
314965369,0.218643,16.138295,1,0.981201,0.020813,-0.045166,-0.186462,0.210000,0.260000,-0.030000,0.292081,0.165178,0.002130,0.146731,-0.033583,0.003513,0.000000,
314977946,-0.058213,16.142939,1,0.981140,0.020813,-0.045166,-0.186829,0.090000,0.170000,-0.060000,0.151138,0.126259,-0.042615,0.027253,-0.185688,-0.042106,0.000000,
314986135,-0.335572,16.147583,1,0.981018,0.020691,-0.045166,-0.187317,0.190000,-0.170000,-0.060000,0.119513,-0.226689,-0.054117,-0.185101,-0.506533,-0.053985,0.000000,
314995266,0.218643,16.138295,1,0.980957,0.020569,-0.045166,-0.187805,0.140000,-0.510000,0.090000,-0.066083,-0.527542,0.071648,0.043874,-0.203655,0.070263,0.000000,
315007894,0.494476,16.142939,1,0.980835,0.020386,-0.045105,-0.188416,-0.020000,-1.000000,0.050000,-0.391077,-0.921889,-0.008848,0.303013,0.127242,-0.007976,0.000000,
315016092,0.403213,16.138295,1,0.980774,0.020386,-0.045105,-0.188660,0.100000,-0.010000,0.010000,0.087831,-0.046700,0.017459,0.362283,0.215908,0.017179,0.000000,
315025336,0.123290,16.152227,1,0.980835,0.020569,-0.045105,-0.188538,-0.050000,0.390000,0.010000,0.096313,0.380296,0.028284,0.225981,0.037105,0.028162,0.000000,
315037900,-0.058213,16.142939,1,0.980835,0.020630,-0.045166,-0.188293,0.230000,0.340000,0.020000,0.335777,0.229749,0.058035,0.061363,-0.172474,0.057706,0.000000,
315046086,0.216598,16.147583,1,0.980835,0.020569,-0.045105,-0.188293,-0.140000,0.020000,-0.030000,-0.119266,0.071237,-0.040009,0.150153,-0.035735,-0.038932,0.000000,
315055218,0.587798,16.138295,1,0.980835,0.020447,-0.045044,-0.188416,-0.020000,-0.240000,0.030000,-0.109645,-0.216024,0.014540,0.403038,0.292015,0.013951,0.000000,
315067789,-0.242768,16.142939,1,0.980896,0.020447,-0.045044,-0.188232,0.210000,0.010000,0.000000,0.197941,-0.068651,0.017511,0.031647,-0.182349,0.017472,0.000000,
315075973,0.216598,16.147583,1,0.980957,0.020508,-0.045105,-0.187927,0.320000,0.260000,0.020000,0.389552,0.122376,0.060621,0.137619,-0.018837,0.060146,0.000000,
315085212,-0.151520,16.147583,1,0.980957,0.020569,-0.045166,-0.187622,0.070000,0.350000,-0.020000,0.194897,0.299634,0.005817,-0.029862,-0.235057,0.006416,0.000000,
315097786,0.310424,16.142939,1,0.981018,0.020508,-0.045044,-0.187561,-0.090000,-0.290000,-0.030000,-0.186605,-0.235366,-0.053684,0.164848,0.015928,-0.053021,0.000000,
315105980,-0.148957,16.138295,1,0.981018,0.020386,-0.044983,-0.187683,-0.040000,-0.410000,-0.040000,-0.183411,-0.365047,-0.066351,-0.017374,-0.261900,-0.066204,0.000000,
315115256,0.126357,16.142939,1,0.981018,0.020325,-0.044983,-0.187683,0.070000,-0.070000,-0.050000,0.043931,-0.089766,-0.048086,0.063372,-0.154627,-0.048285,0.000000,
315127527,0.678542,16.142939,1,0.981018,0.020386,-0.044983,-0.187622,0.080000,0.210000,-0.030000,0.153841,0.166138,-0.011461,0.418721,0.301601,-0.011867,0.000000,
315135910,0.218643,16.138295,1,0.981018,0.020447,-0.044983,-0.187622,-0.150000,0.210000,0.010000,-0.062872,0.250301,0.009833,0.305015,0.127339,0.009594,0.000000,
315145134,0.403213,16.138295,1,0.980957,0.020447,-0.044922,-0.187744,-0.140000,0.040000,-0.020000,-0.112989,0.089436,-0.028887,0.363019,0.201007,-0.028463,0.000000,
315154724,0.126357,16.142939,1,0.980957,0.020386,-0.044922,-0.187927,-0.100000,-0.220000,0.000000,-0.173244,-0.167225,-0.020560,0.227985,0.025397,-0.020648,0.000000,
315167522,-0.244309,16.152227,1,0.980957,0.020386,-0.044922,-0.187988,0.160000,-0.100000,0.050000,0.106557,-0.153308,0.056943,-0.046286,-0.329660,0.056088,0.000000,
315175905,0.126357,16.142939,1,0.980957,0.020386,-0.044922,-0.187988,0.090000,-0.090000,0.100000,0.040667,-0.119233,0.101636,0.051376,-0.173392,0.101134,0.000000,
315185150,-0.058213,16.142939,1,0.980957,0.020386,-0.044922,-0.187927,-0.010000,-0.110000,0.040000,-0.053440,-0.099358,0.032744,-0.013683,-0.256948,0.033498,0.000000,
315205412,-0.242768,16.142939,1,0.980957,0.020264,-0.044861,-0.187866,-0.060000,-0.240000,-0.070000,-0.136852,-0.199035,-0.088071,-0.153345,-0.429941,-0.086732,0.000000,
315214933,0.126357,16.142939,1,0.981018,0.020203,-0.044861,-0.187622,0.010000,-0.050000,-0.050000,-0.004280,-0.048998,-0.051777,0.008233,-0.090533,-0.052162,0.000000,
315224468,0.128417,16.133652,1,0.981079,0.020203,-0.044861,-0.187378,0.080000,0.090000,-0.150000,0.121326,0.057473,-0.137757,0.077545,0.020859,-0.136814,0.000000,
315237482,-0.424256,16.133652,1,0.981140,0.020203,-0.044861,-0.187073,0.030000,0.120000,-0.120000,0.083083,0.103179,-0.110234,-0.215095,-0.393030,-0.110527,0.000000,
315245849,0.035613,16.138295,1,0.981140,0.020203,-0.044861,-0.186829,-0.060000,0.030000,-0.170000,-0.028378,0.053876,-0.172314,-0.072361,-0.163339,-0.171633,0.000000,
315255092,0.678542,16.142939,1,0.981201,0.020203,-0.044861,-0.186646,-0.020000,0.000000,-0.160000,-0.003234,0.011026,-0.160835,0.361014,0.408058,-0.160954,0.000000,
315267699,0.498580,16.124364,1,0.981201,0.020203,-0.044861,-0.186584,0.090000,-0.030000,-0.220000,0.093467,-0.055965,-0.213382,0.446058,0.506437,-0.212804,0.000000,
315275869,0.128417,16.133652,1,0.981201,0.020142,-0.044983,-0.186462,0.120000,0.000000,-0.190000,0.129369,-0.039805,-0.179385,0.265679,0.229290,-0.179754,0.000000,
315285023,0.310424,16.142939,1,0.981201,0.020142,-0.044983,-0.186462,0.080000,-0.030000,-0.090000,0.071811,-0.055260,-0.084791,0.293652,0.261271,-0.085837,0.000000,
315297611,-0.058213,16.142939,1,0.981201,0.020142,-0.044983,-0.186584,0.000000,-0.080000,-0.300000,-0.000410,-0.067543,-0.303047,0.092668,0.004621,-0.300654,0.000000,
315305777,-0.242768,16.142939,1,0.981201,0.020142,-0.044983,-0.186768,-0.080000,-0.160000,-0.150000,-0.118078,-0.115833,-0.164744,-0.102087,-0.285735,-0.166242,0.000000,
315315021,-0.426819,16.142939,1,0.981140,0.020142,-0.045044,-0.186829,0.130000,-0.150000,-0.330000,0.097330,-0.179814,-0.326334,-0.292551,-0.525852,-0.324570,0.000000,
315327425,0.681106,16.133652,1,0.981140,0.020081,-0.045105,-0.186890,-0.070000,0.050000,-0.300000,-0.017775,0.079028,-0.301394,0.266050,0.173997,-0.301650,0.000000,
315335791,-0.331467,16.129008,1,0.981140,0.020081,-0.045166,-0.186890,0.240000,-0.130000,-0.280000,0.201734,-0.202958,-0.266480,-0.079498,-0.340101,-0.266867,0.000000,
315344960,0.494476,16.142939,1,0.981140,0.020081,-0.045166,-0.186890,-0.020000,-0.070000,-0.200000,-0.024839,-0.053178,-0.204585,0.249394,0.081393,-0.205272,0.000000,
315357549,0.310424,16.142939,1,0.981140,0.020081,-0.045166,-0.186829,0.020000,0.040000,0.100000,0.023501,0.027554,0.103385,0.285860,0.126831,0.099984,0.000000,
315365716,0.126357,16.142939,1,0.981140,0.020081,-0.045166,-0.186768,-0.010000,0.050000,0.220000,-0.012176,0.045197,0.220927,0.194267,-0.009502,0.219595,0.000000,
315374961,-0.242768,16.142939,1,0.981201,0.020081,-0.045166,-0.186707,0.170000,0.090000,0.130000,0.177769,0.018127,0.148222,-0.058599,-0.328740,0.149009,0.000000,
315387522,0.126357,16.142939,1,0.981201,0.020081,-0.045166,-0.186707,0.100000,0.100000,0.020000,0.127155,0.055676,0.033643,0.044663,-0.194070,0.034914,0.000000,
315395710,-0.522690,16.156871,1,0.981201,0.020081,-0.045166,-0.186707,0.110000,-0.080000,0.000000,0.072716,-0.114861,0.004423,-0.286448,-0.685876,0.004759,0.000000,
315404949,-0.058213,16.142939,1,0.981201,0.020081,-0.045166,-0.186707,0.100000,-0.020000,0.100000,0.075715,-0.057664,0.106499,-0.160760,-0.517023,0.105378,0.000000,
315417538,0.126357,16.142939,1,0.981201,0.020081,-0.045166,-0.186707,0.090000,-0.040000,0.100000,0.059162,-0.072572,0.104563,-0.000543,-0.306952,0.104572,0.000000,
315425690,0.310424,16.142939,1,0.981201,0.020020,-0.045166,-0.186707,0.160000,-0.020000,0.220000,0.119756,-0.082434,0.230788,0.177581,-0.034656,0.229397,0.000000,
315434862,0.403213,16.138295,1,0.981201,0.020020,-0.045166,-0.186707,0.010000,-0.100000,0.550000,-0.080057,-0.108961,0.542512,0.307788,0.136303,0.539061,0.000000,
315447407,0.033050,16.147583,1,0.981201,0.020020,-0.045166,-0.186707,-0.050000,0.020000,0.690000,-0.105334,0.021529,0.683697,0.150050,-0.054274,0.682103,0.000000,
315455596,-0.244309,16.152227,1,0.981201,0.020081,-0.045166,-0.186707,-0.050000,-0.070000,0.730000,-0.142007,-0.063107,0.718437,-0.079414,-0.390575,0.718037,0.000000,
315464803,0.033050,16.147583,1,0.981201,0.020081,-0.045166,-0.186707,-0.120000,0.190000,0.620000,-0.101476,0.206810,0.617926,-0.017931,-0.301985,0.619029,0.000000,
315474402,0.494476,16.142939,1,0.981201,0.020081,-0.045166,-0.186707,-0.300000,0.270000,0.000000,-0.179424,0.361420,-0.009147,0.275589,0.070809,-0.002225,0.000000,
315487207,0.772384,16.138295,1,0.981201,0.020081,-0.045166,-0.186584,0.220000,-0.230000,-0.070000,0.126715,-0.293174,-0.064747,0.565222,0.438540,-0.064058,0.000000,
315495575,-0.151520,16.147583,1,0.981262,0.020020,-0.045166,-0.186340,0.190000,-0.170000,-0.040000,0.118013,-0.226986,-0.033921,0.152142,-0.198088,-0.034254,0.000000,
315504818,0.035613,16.138295,1,0.981262,0.020020,-0.045166,-0.186340,0.300000,-0.360000,0.160000,0.131566,-0.448556,0.163369,0.082864,-0.284478,0.161191,0.000000,
