Code compiled on Feb 14 2026 at 22:01:21
﻿Simulation Mode (T/F),F
Airbrakes Enabled (T/F),T
Log File Name,FLT
Sim File Name (if applicable),Sim
Burnout Mass (kg),0.6
Air Density (kg/m^3),1.23
Rocket CD,0.65
Airbrake CD,0.65
Rocket Area (m^2),0.00243
Kalman Model Y STD,0.05
Kalman Model V STD,0.1
Kalman Model A STD,0.015
Kalman Measurement Y STD,0.6
Kalman Measurement A STD,0.013
Target Apogee (m),228.6
Launch Acceleration Threshold (m/s^2),40
Coast Lockout (s),1.5
KP (1/s),0.24
Altimeter Lockout (s),60
Control Max Velocity (dep/s),2

Calibration point: 239.272635
Time (us),Altitude AGL (m),Temperature (deg C),Mode,IMU Quat W,IMU Quat X,IMU Quat Y,IMU Quat Z,IMU Local Acceleration X,IMU Local Acceleration Y,IMU Local Acceleration Z,IMU Global Acceleration x,IMU Global Acceleration y,IMU Global Acceleration z,State Estimation y,State Estimation v,State Estimation a,Commanded servo deployment,Real servo deployment,
132411802,-0.101172,18.710465,1,-0.336548,0.003540,-0.006104,-0.941650,-0.090000,0.090000,0.540000,0.011184,-0.119155,0.541736,0.000000,0.000000,0.000000,0.000000,0.000000,
132424472,0.363459,18.705823,1,-0.336304,0.003540,-0.006104,-0.941711,-0.090000,0.110000,0.540000,-0.001428,-0.134612,0.541918,0.044367,0.006790,0.535881,0.000000,0.000000,
132433046,-0.285894,18.719749,1,-0.336182,0.003540,-0.006104,-0.941772,-0.050000,0.110000,0.560000,-0.032397,-0.109016,0.561486,-0.023895,0.010683,0.561203,0.000000,0.000000,
132441263,0.457621,18.719749,1,-0.336182,0.003540,-0.006104,-0.941772,-0.050000,0.090000,0.580000,-0.019783,-0.093261,0.581301,0.099981,0.018162,0.581080,0.000000,0.000000,
132452575,-0.100149,18.729033,1,-0.335938,0.003540,-0.006104,-0.941833,-0.010000,0.090000,0.540000,-0.050600,-0.068506,0.540875,0.043427,0.022496,0.541318,0.000000,0.000000,
132459951,-0.006506,18.733675,1,-0.335938,0.003540,-0.006104,-0.941833,-0.070000,0.090000,0.580000,-0.004252,-0.105916,0.581517,0.028762,0.026033,0.581074,0.000000,0.000000,
132468489,0.273416,18.747601,1,-0.335876,0.003540,-0.006104,-0.941895,-0.090000,0.090000,0.580000,0.011258,-0.118585,0.581732,0.103373,0.035316,0.581725,0.000000,0.000000,
132480376,-0.098089,18.756885,1,-0.335876,0.003540,-0.006104,-0.941895,-0.110000,0.090000,0.540000,0.026849,-0.131794,0.541952,0.041917,0.037311,0.542390,0.000000,0.000000,
132489320,0.088694,18.756885,1,-0.335938,0.003540,-0.006104,-0.941833,-0.090000,0.090000,0.520000,0.011385,-0.119404,0.521738,0.056729,0.043438,0.521966,0.000000,0.000000,
132498161,0.553842,18.770811,1,-0.336060,0.003540,-0.006104,-0.941833,-0.070000,0.110000,0.520000,-0.016779,-0.122247,0.521705,0.211191,0.065579,0.521708,0.000000,0.000000,
132510277,0.089716,18.775453,1,-0.336121,0.003540,-0.006104,-0.941772,-0.050000,0.070000,0.520000,-0.006956,-0.078610,0.521125,0.174307,0.067089,0.521131,0.000000,0.000000,
132519068,-0.374395,18.780095,1,-0.336243,0.003540,-0.006104,-0.941711,-0.070000,0.070000,0.560000,0.008392,-0.090713,0.561336,0.004319,0.044360,0.560893,0.000000,0.000000,
132527645,0.090235,18.784737,1,-0.336426,0.003540,-0.006104,-0.941711,0.010000,0.030000,0.500000,-0.028028,-0.009935,0.500116,0.031440,0.053221,0.500786,0.000000,0.000000,
132540115,0.091257,18.794021,1,-0.336548,0.003540,-0.006104,-0.941650,-0.030000,0.070000,0.520000,-0.022496,-0.065938,0.520909,0.050768,0.063084,0.520688,0.000000,0.000000,
132548840,-0.187613,18.798663,1,-0.336731,0.003540,-0.006104,-0.941589,-0.050000,0.050000,0.560000,0.005523,-0.062593,0.560939,-0.022954,0.051378,0.560495,0.000000,0.000000,
132557749,0.184397,18.798663,1,-0.336975,0.003540,-0.006104,-0.941467,-0.070000,0.050000,0.540000,0.020990,-0.075555,0.541156,0.042150,0.070963,0.541369,0.000000,0.000000,
132570389,0.370142,18.798663,1,-0.337158,0.003540,-0.006104,-0.941406,-0.090000,0.030000,0.540000,0.049109,-0.072810,0.541190,0.145426,0.102212,0.541192,0.000000,0.000000,
132579193,-0.186590,18.807946,1,-0.337463,0.003540,-0.006104,-0.941284,-0.090000,0.070000,0.560000,0.023591,-0.103444,0.561552,0.042646,0.077427,0.561327,0.000000,0.000000,
132587913,-0.372336,18.807946,1,-0.337769,0.003540,-0.006104,-0.941223,-0.160000,0.070000,0.540000,0.077617,-0.148258,0.542309,-0.086240,0.044827,0.542519,0.000000,0.000000,
132600365,-0.092947,18.812588,1,-0.338013,0.003540,-0.006104,-0.941101,-0.110000,0.050000,0.520000,0.051724,-0.101328,0.521590,-0.087738,0.050708,0.521820,0.000000,0.000000,
132609145,-0.092947,18.812588,1,-0.338318,0.003540,-0.006104,-0.940979,-0.070000,0.010000,0.540000,0.046232,-0.044779,0.540793,-0.088902,0.054897,0.540584,0.000000,0.000000,
132618081,-0.278692,18.821872,1,-0.338562,0.003540,-0.006104,-0.940918,-0.070000,-0.010000,0.580000,0.058856,-0.028836,0.580607,-0.147755,0.039775,0.580166,0.000000,0.000000,
132630631,-0.092947,18.812588,1,-0.338745,0.003540,-0.006104,-0.940857,-0.070000,0.010000,0.540000,0.046196,-0.044824,0.540793,-0.130048,0.052529,0.541227,0.000000,0.000000,
132639334,-0.186071,18.817230,1,-0.338928,0.003540,-0.006104,-0.940796,-0.030000,-0.010000,0.600000,0.027972,-0.003098,0.600173,-0.147133,0.050670,0.599524,0.000000,0.000000,
132648152,0.093317,18.821872,1,-0.339050,0.003540,-0.006104,-0.940735,-0.110000,-0.010000,0.540000,0.089722,-0.054968,0.541043,-0.071325,0.085331,0.541688,0.000000,0.000000,
132660756,-0.370794,18.835798,1,-0.339233,0.003540,-0.006104,-0.940674,-0.120000,0.010000,0.580000,0.084533,-0.076225,0.581329,-0.164156,0.055257,0.580892,0.000000,0.000000,
132669596,-0.464438,18.821872,1,-0.339355,0.003540,-0.006104,-0.940613,-0.140000,0.090000,0.520000,0.048972,-0.151408,0.522278,-0.257970,0.016553,0.522924,0.000000,0.000000,
132678464,0.372202,18.817230,1,-0.339417,0.003540,-0.006104,-0.940613,-0.140000,0.070000,0.500000,0.061784,-0.136311,0.502098,-0.060000,0.110279,0.502328,0.000000,0.000000,
132691032,0.001215,18.835798,1,-0.339478,0.003540,-0.006104,-0.940552,-0.110000,0.070000,0.520000,0.038616,-0.116871,0.521772,-0.039332,0.125501,0.521558,0.000000,0.000000,
132699592,0.279581,18.831156,1,-0.339478,0.003540,-0.006104,-0.940552,-0.120000,0.050000,0.580000,0.058931,-0.107038,0.581693,0.062109,0.182108,0.581030,0.000000,0.000000,
132711566,0.093836,18.831156,1,-0.339478,0.003540,-0.006104,-0.940552,-0.090000,0.050000,0.500000,0.036052,-0.088992,0.501376,0.074313,0.193086,0.502254,0.000000,0.000000,
132720004,0.372721,18.826514,1,-0.339417,0.003540,-0.006104,-0.940613,-0.050000,-0.010000,0.560000,0.043455,-0.016453,0.560394,0.169958,0.249474,0.559753,0.000000,0.000000,
132728661,-0.091406,18.831156,1,-0.339294,0.003540,-0.006104,-0.940674,-0.070000,0.010000,0.520000,0.046193,-0.045157,0.520795,0.089914,0.210473,0.521224,0.000000,0.000000,
132741220,-0.091406,18.831156,1,-0.339172,0.003540,-0.006104,-0.940674,-0.090000,0.010000,0.560000,0.061490,-0.057348,0.561007,0.035478,0.187671,0.560569,0.000000,0.000000,
132750083,0.931543,18.835798,1,-0.338989,0.003540,-0.006104,-0.940735,-0.070000,0.050000,0.540000,0.020649,-0.075645,0.541156,0.319868,0.360731,0.541370,0.000000,0.000000,
132758922,-0.090887,18.840440,1,-0.338806,0.003540,-0.006104,-0.940796,-0.140000,0.070000,0.580000,0.061745,-0.135106,0.582090,0.193626,0.290660,0.581641,0.000000,0.000000,
132771344,-0.184012,18.835798,1,-0.338684,0.003540,-0.006104,-0.940857,-0.110000,0.070000,0.560000,0.038725,-0.116256,0.561768,0.078091,0.229210,0.561987,0.000000,0.000000,
132779920,0.002253,18.845082,1,-0.338501,0.003540,-0.006104,-0.940918,-0.140000,0.090000,0.560000,0.049151,-0.150761,0.562273,0.056115,0.218555,0.562270,0.000000,0.000000,
132788885,-0.090887,18.840440,1,-0.338318,0.003540,-0.006104,-0.941040,-0.110000,0.070000,0.540000,0.038888,-0.116520,0.541770,0.011706,0.194533,0.541996,0.000000,0.000000,
132801537,-0.184012,18.835798,1,-0.338074,0.003540,-0.006104,-0.941101,-0.050000,0.090000,0.580000,-0.020173,-0.093186,0.581300,-0.047658,0.163685,0.580867,0.000000,0.000000,
132810397,0.093836,18.831156,1,-0.337891,0.003540,-0.006104,-0.941162,-0.090000,0.090000,0.540000,0.010832,-0.119186,0.541736,-0.001390,0.199717,0.542167,0.000000,0.000000,
132819266,-0.090887,18.840440,1,-0.337646,0.003540,-0.006104,-0.941223,-0.090000,0.070000,0.500000,0.023703,-0.104288,0.501558,-0.027893,0.185052,0.502005,0.000000,0.000000,
132831608,0.466883,18.840440,1,-0.337402,0.003540,-0.006104,-0.941345,-0.070000,0.090000,0.560000,-0.004536,-0.106196,0.561518,0.131081,0.295920,0.560862,0.000000,0.000000,
132840191,-0.462378,18.849724,1,-0.337158,0.003540,-0.006104,-0.941406,-0.110000,0.110000,0.580000,0.013670,-0.146751,0.582130,-0.054449,0.162011,0.581895,0.000000,0.000000,
132849104,0.002253,18.845082,1,-0.336975,0.003540,-0.006104,-0.941467,-0.110000,0.130000,0.540000,0.001138,-0.162753,0.542316,-0.035041,0.179567,0.542752,0.000000,0.000000,
132861735,-0.183508,18.845082,1,-0.336853,0.003540,-0.006104,-0.941528,-0.070000,0.070000,0.500000,0.008430,-0.091568,0.501342,-0.079800,0.153017,0.501799,0.000000,0.000000,
132870580,0.374262,18.845082,1,-0.336670,0.003540,-0.006104,-0.941589,-0.090000,0.050000,0.540000,0.036510,-0.088223,0.541372,0.065743,0.270924,0.540936,0.000000,0.000000,
132879469,0.745783,18.835798,1,-0.336548,0.003540,-0.006104,-0.941650,-0.050000,0.110000,0.540000,-0.032432,-0.109273,0.541487,0.283723,0.439031,0.541481,0.000000,0.000000,
132891928,0.002253,18.845082,1,-0.336426,0.003540,-0.006104,-0.941650,-0.050000,0.070000,0.560000,-0.007114,-0.078047,0.561121,0.199872,0.379713,0.560904,0.000000,0.000000,
132900424,0.281122,18.840440,1,-0.336365,0.003540,-0.006104,-0.941711,-0.110000,0.070000,0.560000,0.039325,-0.116068,0.561767,0.228942,0.405793,0.561758,0.000000,0.000000,
132909413,0.374262,18.845082,1,-0.336304,0.003540,-0.006104,-0.941711,-0.090000,0.070000,0.560000,0.023858,-0.103388,0.561552,0.278712,0.447117,0.561554,0.000000,0.000000,
132922085,0.374781,18.854366,1,-0.336304,0.003540,-0.006104,-0.941711,-0.070000,0.050000,0.580000,0.021002,-0.074970,0.581152,0.314963,0.478140,0.580936,0.000000,0.000000,
132930953,0.281641,18.849724,1,-0.336304,0.003540,-0.006104,-0.941711,-0.070000,0.050000,0.540000,0.021104,-0.075525,0.541156,0.308615,0.473741,0.541594,0.000000,0.000000,
132939797,-0.090368,18.849724,1,-0.336304,0.003540,-0.006104,-0.941711,-0.090000,0.070000,0.520000,0.023961,-0.103943,0.521556,0.186047,0.372538,0.521777,0.000000,0.000000,
132952266,0.653665,18.849724,1,-0.336304,0.003540,-0.006104,-0.941711,-0.090000,0.090000,0.520000,0.011292,-0.119416,0.521738,0.339570,0.500084,0.521738,0.000000,0.000000,
132960913,0.002253,18.845082,1,-0.336304,0.003540,-0.006104,-0.941711,-0.050000,0.070000,0.560000,-0.007090,-0.078054,0.561121,0.236418,0.408067,0.560687,0.000000,0.000000,
132969794,-0.090368,18.849724,1,-0.336365,0.003540,-0.006104,-0.941711,-0.110000,0.050000,0.540000,0.052048,-0.100872,0.541587,0.136150,0.323347,0.541797,0.000000,0.000000,
132982430,0.003275,18.854366,1,-0.336487,0.003540,-0.006104,-0.941650,-0.090000,0.070000,0.540000,0.023869,-0.103677,0.541554,0.097942,0.294557,0.541556,0.000000,0.000000,
132991294,0.094858,18.849724,1,-0.336548,0.003540,-0.006104,-0.941650,-0.050000,0.070000,0.540000,-0.007078,-0.078336,0.541123,0.099590,0.298431,0.541128,0.000000,0.000000,
133000050,0.094355,18.840440,1,-0.336670,0.003540,-0.006104,-0.941589,-0.090000,-0.010000,0.560000,0.074502,-0.041553,0.560823,0.100558,0.301839,0.560606,0.000000,0.000000,
133012522,-0.183508,18.845082,1,-0.336731,0.003540,-0.006104,-0.941589,-0.050000,0.030000,0.540000,0.018257,-0.047406,0.540758,0.013763,0.229417,0.540977,0.000000,0.000000,
133021103,-0.369238,18.854366,1,-0.336853,0.003540,-0.006104,-0.941528,-0.010000,0.050000,0.560000,-0.025418,-0.037220,0.560507,-0.106556,0.115957,0.560292,0.000000,0.000000,
133030093,0.281641,18.849724,1,-0.336975,0.003540,-0.006104,-0.941467,-0.070000,0.050000,0.560000,0.020939,-0.075278,0.561154,0.018190,0.234963,0.561145,0.000000,0.000000,
133042733,0.281641,18.849724,1,-0.337097,0.003540,-0.006104,-0.941467,-0.110000,0.090000,0.560000,0.026449,-0.131591,0.561950,0.105327,0.317973,0.561941,0.000000,0.000000,
133051602,0.186960,18.835798,1,-0.337219,0.003540,-0.006104,-0.941406,-0.120000,0.070000,0.520000,0.046935,-0.123044,0.521879,0.134278,0.348767,0.522321,0.000000,0.000000,
133060337,0.189020,18.854366,1,-0.337341,0.003540,-0.006104,-0.941345,-0.090000,0.070000,0.560000,0.023623,-0.103444,0.561552,0.154809,0.370470,0.561120,0.000000,0.000000,
133072921,-0.369238,18.854366,1,-0.337402,0.003540,-0.006104,-0.941345,-0.140000,0.050000,0.560000,0.074938,-0.119767,0.561909,-0.007973,0.221801,0.561900,0.000000,0.000000,
133081608,0.374781,18.854366,1,-0.337463,0.003540,-0.006104,-0.941284,-0.070000,0.050000,0.560000,0.020855,-0.075298,0.561154,0.116483,0.352857,0.561162,0.000000,0.000000,
133090498,0.281641,18.849724,1,-0.337585,0.003540,-0.006104,-0.941284,-0.030000,-0.010000,0.540000,0.028145,-0.003849,0.540179,0.172365,0.409460,0.540410,0.000000,0.000000,
133103133,0.189539,18.863649,1,-0.337585,0.003540,-0.006104,-0.941284,-0.070000,0.030000,0.560000,0.033556,-0.059873,0.560972,0.183078,0.421797,0.560746,0.000000,0.000000,
133112017,-0.369238,18.854366,1,-0.337646,0.003540,-0.006104,-0.941223,-0.110000,0.030000,0.540000,0.064464,-0.085571,0.541406,0.009851,0.239206,0.541619,0.000000,0.000000,
133120659,-0.275595,18.859008,1,-0.337708,0.003540,-0.006104,-0.941223,-0.120000,0.050000,0.540000,0.059465,-0.107377,0.541696,-0.079273,0.151281,0.541695,0.000000,0.000000,
133133117,-0.090368,18.849724,1,-0.337769,0.003540,-0.006104,-0.941223,-0.120000,0.090000,0.540000,0.034024,-0.138263,0.542060,-0.080898,0.154564,0.542055,0.000000,0.000000,
133141696,0.003275,18.854366,1,-0.337769,0.003540,-0.006104,-0.941223,-0.140000,0.050000,0.520000,0.074948,-0.120384,0.521913,-0.052576,0.188107,0.522135,0.000000,0.000000,
133150728,0.281641,18.849724,1,-0.337769,0.003540,-0.006104,-0.941223,-0.110000,0.070000,0.560000,0.038972,-0.116191,0.561768,0.055983,0.302634,0.561331,0.000000,0.000000,
133163354,0.560541,18.854366,1,-0.337769,0.003540,-0.006104,-0.941223,-0.110000,0.070000,0.560000,0.038972,-0.116191,0.561768,0.221524,0.471713,0.561763,0.000000,0.000000,
133172176,0.189020,18.854366,1,-0.337708,0.003540,-0.006104,-0.941223,-0.070000,0.050000,0.540000,0.020871,-0.075593,0.541156,0.215274,0.464927,0.541383,0.000000,0.000000,
133180978,-0.089346,18.859008,1,-0.337646,0.003540,-0.006104,-0.941284,-0.030000,0.030000,0.580000,0.002618,-0.034179,0.580539,0.121901,0.366763,0.580107,0.000000,0.000000,
133193508,0.467401,18.849724,1,-0.337524,0.003540,-0.006104,-0.941284,-0.090000,-0.030000,0.500000,0.087281,-0.027082,0.500648,0.237323,0.486486,0.501523,0.000000,0.000000,
133202416,0.374781,18.854366,1,-0.337341,0.003540,-0.006104,-0.941345,-0.070000,-0.030000,0.580000,0.071641,-0.013236,0.580424,0.285830,0.541456,0.579555,0.000000,0.000000,
133211245,-0.275595,18.859008,1,-0.337097,0.003540,-0.006104,-0.941406,-0.110000,-0.010000,0.560000,0.089901,-0.054314,0.561039,0.110821,0.351981,0.561243,0.000000,0.000000,
133223771,0.560541,18.854366,1,-0.336792,0.003540,-0.006104,-0.941528,-0.120000,-0.010000,0.580000,0.097624,-0.060320,0.581144,0.259594,0.510100,0.580925,0.000000,0.000000,
133232474,0.189020,18.854366,1,-0.336365,0.003540,-0.006104,-0.941711,-0.140000,-0.010000,0.520000,0.113324,-0.073734,0.521365,0.241374,0.488557,0.522022,0.000000,0.000000,
133241304,0.003275,18.854366,1,-0.335815,0.003540,-0.006104,-0.941895,-0.110000,0.030000,0.520000,0.064869,-0.085597,0.521406,0.169428,0.409663,0.521413,0.000000,0.000000,
133253771,0.094858,18.849724,1,-0.335205,0.003540,-0.006104,-0.942139,-0.140000,0.070000,0.540000,0.062937,-0.135198,0.542092,0.150639,0.391058,0.541864,0.000000,0.000000,
133262606,0.467401,18.849724,1,-0.334534,0.003540,-0.006104,-0.942322,-0.110000,0.110000,0.540000,0.014607,-0.147213,0.542134,0.255964,0.514450,0.542131,0.000000,0.000000,
133271493,0.560022,18.845082,1,-0.333862,0.003479,-0.006104,-0.942627,-0.030000,0.090000,0.600000,-0.034826,-0.080524,0.601086,0.358041,0.628381,0.600437,0.000000,0.000000,
133284107,0.374781,18.854366,1,-0.333130,0.003479,-0.006104,-0.942871,-0.050000,0.060000,0.560000,-0.000187,-0.070346,0.561028,0.371390,0.641264,0.561462,0.000000,0.000000,
133292692,0.189020,18.854366,1,-0.332397,0.003479,-0.006104,-0.943115,-0.010000,0.040000,0.540000,-0.018643,-0.029962,0.540421,0.318237,0.576100,0.540653,0.000000,0.000000,
133301626,0.281641,18.849724,1,-0.331665,0.003479,-0.006104,-0.943359,-0.070000,0.080000,0.560000,0.003122,-0.098449,0.561424,0.311669,0.567889,0.561195,0.000000,0.000000,
133340470,0.189539,18.863649,1,-0.328796,0.003479,-0.006104,-0.944397,-0.120000,0.100000,0.600000,0.030420,-0.144608,0.602135,0.293794,0.548315,0.601684,0.000000,0.000000,
133349509,-0.091406,18.831156,1,-0.328125,0.003479,-0.006104,-0.944580,-0.160000,0.130000,0.520000,0.043601,-0.193974,0.522843,0.166425,0.291953,0.523712,0.000000,0.000000,
133357857,0.001215,18.835798,1,-0.327515,0.003479,-0.006104,-0.944824,-0.070000,0.060000,0.560000,0.016404,-0.082709,0.561240,0.113785,0.204587,0.560826,0.000000,0.000000,
133372085,-0.183508,18.845082,1,-0.326904,0.003479,-0.006104,-0.945007,-0.030000,0.130000,0.500000,-0.058034,-0.113822,0.501472,0.018579,0.071663,0.502126,0.000000,0.000000,
133381550,0.001215,18.835798,1,-0.326355,0.003479,-0.006104,-0.945190,-0.010000,0.040000,0.520000,-0.018159,-0.030460,0.520425,0.013577,0.068281,0.520223,0.000000,0.000000,
133391233,0.093836,18.831156,1,-0.325928,0.003479,-0.006104,-0.945374,-0.070000,0.020000,0.560000,0.041346,-0.051152,0.560869,0.040385,0.108319,0.560421,0.000000,0.000000,
133404104,-0.369757,18.845082,1,-0.325562,0.003479,-0.006104,-0.945496,-0.110000,0.020000,0.540000,0.072960,-0.076018,0.541293,-0.091449,-0.049783,0.541504,0.000000,0.000000,
133412808,-0.277151,18.840440,1,-0.325195,0.003479,-0.006104,-0.945618,-0.120000,0.020000,0.560000,0.080852,-0.081834,0.561396,-0.152064,-0.122657,0.561177,0.000000,0.000000,
133421901,-0.183508,18.845082,1,-0.324768,0.003418,-0.006104,-0.945740,-0.140000,-0.040000,0.580000,0.133572,-0.046457,0.581030,-0.163289,-0.129445,0.580812,0.000000,0.000000,
133434722,0.186960,18.835798,1,-0.324341,0.003418,-0.006104,-0.945923,-0.140000,0.020000,0.580000,0.096819,-0.093707,0.581589,-0.051919,0.005986,0.581581,0.000000,0.000000,
133443581,0.559503,18.835798,1,-0.323792,0.003418,-0.006104,-0.946106,-0.140000,0.020000,0.560000,0.096980,-0.093868,0.561591,0.145476,0.252573,0.561811,0.000000,0.000000,
133452454,0.094355,18.840440,1,-0.323059,0.003418,-0.006165,-0.946350,-0.090000,0.020000,0.560000,0.057589,-0.063080,0.561074,0.131311,0.238580,0.561082,0.000000,0.000000,
133464972,0.002253,18.845082,1,-0.322205,0.003418,-0.006165,-0.946655,-0.090000,0.040000,0.500000,0.045663,-0.079656,0.501269,0.092805,0.198950,0.501928,0.000000,0.000000,
133473778,0.374262,18.845082,1,-0.321289,0.003418,-0.006165,-0.946960,-0.090000,0.040000,0.520000,0.045771,-0.079287,0.521267,0.185241,0.312537,0.521053,0.000000,0.000000,
133482619,0.374262,18.845082,1,-0.320312,0.003418,-0.006165,-0.947266,-0.050000,0.020000,0.540000,0.026233,-0.038744,0.540657,0.248699,0.386620,0.540441,0.000000,0.000000,
133495262,0.094858,18.849724,1,-0.319275,0.003418,-0.006165,-0.947632,-0.030000,0.120000,0.540000,-0.050108,-0.106189,0.541399,0.204151,0.339039,0.541388,0.000000,0.000000,
133504131,0.281641,18.849724,1,-0.318237,0.003418,-0.006165,-0.947998,0.010000,0.190000,0.540000,-0.124005,-0.137991,0.541650,0.232142,0.374018,0.541647,0.000000,0.000000,
133512814,0.096399,18.859008,1,-0.317322,0.003418,-0.006165,-0.948303,-0.030000,0.170000,0.520000,-0.079697,-0.146605,0.521879,0.191834,0.328296,0.522097,0.000000,0.000000,
133525370,0.467401,18.849724,1,-0.316589,0.003418,-0.006165,-0.948547,-0.030000,0.250000,0.540000,-0.127567,-0.210410,0.542641,0.284622,0.433134,0.542414,0.000000,0.000000,
133533964,0.003275,18.854366,1,-0.315979,0.003418,-0.006165,-0.948730,0.010000,0.230000,0.540000,-0.147309,-0.170569,0.542036,0.197762,0.327604,0.542040,0.000000,0.000000,
133545959,0.747324,18.854366,1,-0.315552,0.003357,-0.006165,-0.948853,-0.010000,0.190000,0.540000,-0.107116,-0.150653,0.541870,0.378751,0.537366,0.541871,0.000000,0.000000,
133554603,-0.369238,18.854366,1,-0.315430,0.003357,-0.006165,-0.948914,0.010000,0.190000,0.560000,-0.123147,-0.138447,0.561663,0.142411,0.246315,0.561445,0.000000,0.000000,
133563464,-0.275595,18.859008,1,-0.315491,0.003357,-0.006165,-0.948914,0.050000,0.170000,0.500000,-0.143082,-0.099308,0.501066,0.010389,0.094490,0.501732,0.000000,0.000000,
133575912,-0.090368,18.849724,1,-0.315796,0.003418,-0.006165,-0.948792,-0.050000,0.040000,0.540000,0.014653,-0.054495,0.540847,-0.020814,0.064715,0.540416,0.000000,0.000000,
133584790,0.189020,18.854366,1,-0.316223,0.003418,-0.006165,-0.948669,-0.050000,0.060000,0.520000,0.002655,-0.070789,0.521040,0.047410,0.152780,0.521253,0.000000,0.000000,
133593420,-0.089346,18.859008,1,-0.316772,0.003418,-0.006165,-0.948486,-0.070000,0.040000,0.520000,0.030574,-0.066825,0.521057,0.004822,0.105418,0.521059,0.000000,0.000000,
133605758,0.467920,18.859008,1,-0.317383,0.003418,-0.006165,-0.948242,-0.120000,0.020000,0.540000,0.082382,-0.080707,0.541384,0.155170,0.280830,0.541160,0.000000,0.000000,
133614289,0.189539,18.863649,1,-0.317993,0.003418,-0.006165,-0.948059,-0.140000,0.020000,0.540000,0.098237,-0.092875,0.541593,0.168658,0.299176,0.541588,0.000000,0.000000,
133623374,0.003275,18.854366,1,-0.318665,0.003418,-0.006165,-0.947815,-0.180000,0.020000,0.600000,0.129808,-0.116341,0.602004,0.118281,0.242233,0.601338,0.000000,0.000000,
133636032,0.189020,18.854366,1,-0.319275,0.003418,-0.006165,-0.947632,-0.140000,-0.020000,0.560000,0.122132,-0.061024,0.561212,0.144177,0.275498,0.561655,0.000000,0.000000,
133644880,0.653665,18.849724,1,-0.319824,0.003418,-0.006165,-0.947449,-0.120000,-0.040000,0.560000,0.118272,-0.033140,0.560815,0.311037,0.488560,0.560824,0.000000,0.000000,
133653539,0.094858,18.849724,1,-0.320251,0.003418,-0.006165,-0.947327,-0.120000,-0.040000,0.540000,0.118299,-0.033522,0.540818,0.245783,0.409294,0.541038,0.000000,0.000000,
133666028,-0.181952,18.863649,1,-0.320557,0.003418,-0.006165,-0.947205,-0.090000,0.020000,0.560000,0.057943,-0.062772,0.561073,0.113153,0.256766,0.560852,0.000000,0.000000,
133674629,0.560541,18.854366,1,-0.320740,0.003418,-0.006165,-0.947144,-0.070000,0.040000,0.520000,0.029982,-0.067082,0.521058,0.259697,0.444636,0.521496,0.000000,0.000000,
133683706,0.375299,18.863649,1,-0.320740,0.003418,-0.006165,-0.947144,-0.110000,0.020000,0.600000,0.073702,-0.074390,0.601277,0.300930,0.494863,0.600398,0.000000,0.000000,
133696308,0.282679,18.868291,1,-0.320618,0.003418,-0.006165,-0.947144,-0.120000,0.060000,0.560000,0.057453,-0.112760,0.561765,0.301326,0.495038,0.562191,0.000000,0.000000,
133705147,0.096399,18.859008,1,-0.320374,0.003418,-0.006165,-0.947266,-0.090000,0.040000,0.520000,0.045930,-0.079196,0.521266,0.239543,0.414348,0.521717,0.000000,0.000000,
133713873,-0.275595,18.859008,1,-0.320007,0.003418,-0.006165,-0.947388,-0.140000,0.060000,0.560000,0.073522,-0.124823,0.561973,0.077427,0.215617,0.561529,0.000000,0.000000,
133726391,0.282160,18.859008,1,-0.319580,0.003418,-0.006165,-0.947510,-0.120000,0.100000,0.560000,0.033489,-0.144460,0.562144,0.146178,0.300508,0.562137,0.000000,0.000000,
133735145,0.003794,18.863649,1,-0.319031,0.003418,-0.006165,-0.947693,-0.120000,0.120000,0.540000,0.021617,-0.160622,0.542336,0.102852,0.245791,0.542554,0.000000,0.000000,
133744039,0.467920,18.859008,1,-0.318481,0.003418,-0.006165,-0.947937,-0.090000,0.080000,0.580000,0.021964,-0.110072,0.581640,0.222542,0.395536,0.581209,0.000000,0.000000,
133756617,-0.089346,18.859008,1,-0.317871,0.003418,-0.006165,-0.948120,-0.050000,0.120000,0.500000,-0.033720,-0.118951,0.501612,0.126955,0.282190,0.502489,0.000000,0.000000,
133765338,-0.275595,18.859008,1,-0.317383,0.003418,-0.006165,-0.948303,-0.120000,0.130000,0.540000,0.016190,-0.168559,0.542432,-0.000608,0.117150,0.541992,0.000000,0.000000,
133774117,0.189539,18.863649,1,-0.316895,0.003418,-0.006165,-0.948425,-0.070000,0.130000,0.560000,-0.023655,-0.138189,0.561910,0.061643,0.197971,0.561691,0.000000,0.000000,
133786637,-0.088827,18.868291,1,-0.316589,0.003418,-0.006165,-0.948547,0.010000,0.120000,0.540000,-0.081466,-0.082452,0.540986,0.015629,0.146809,0.541214,0.000000,0.000000,
133795468,0.094858,18.849724,1,-0.316467,0.003418,-0.006165,-0.948608,-0.010000,0.130000,0.560000,-0.071507,-0.102209,0.561287,0.042547,0.185279,0.561066,0.000000,0.000000,
133804373,0.467920,18.859008,1,-0.316345,0.003418,-0.006165,-0.948608,-0.050000,0.120000,0.500000,-0.033329,-0.119046,0.501614,0.181191,0.360758,0.502269,0.000000,0.000000,
133817026,0.282679,18.868291,1,-0.316345,0.003418,-0.006165,-0.948608,-0.090000,0.120000,0.500000,-0.001337,-0.143052,0.502029,0.218555,0.406616,0.502032,0.000000,0.000000,
133825581,0.282160,18.859008,1,-0.316467,0.003418,-0.006165,-0.948608,-0.090000,0.150000,0.540000,-0.019481,-0.166510,0.542311,0.242612,0.438506,0.541867,0.000000,0.000000,
133834538,-0.089346,18.859008,1,-0.316589,0.003418,-0.006165,-0.948547,-0.120000,0.120000,0.580000,0.022373,-0.159970,0.582333,0.139665,0.310011,0.581887,0.000000,0.000000,
133847072,0.189020,18.854366,1,-0.316711,0.003418,-0.006165,-0.948486,-0.110000,0.020000,0.540000,0.074517,-0.074584,0.541280,0.159525,0.336100,0.541727,0.000000,0.000000,
133855934,0.096399,18.859008,1,-0.316895,0.003418,-0.006165,-0.948425,-0.120000,0.060000,0.520000,0.058483,-0.112863,0.521767,0.142113,0.313643,0.521987,0.000000,0.000000,
133864784,0.282679,18.868291,1,-0.317078,0.003418,-0.006165,-0.948364,-0.110000,0.040000,0.560000,0.062376,-0.090341,0.561468,0.190199,0.375916,0.561033,0.000000,0.000000,
133877240,-0.274572,18.868291,1,-0.317261,0.003418,-0.006165,-0.948303,-0.090000,0.040000,0.580000,0.046315,-0.078055,0.581259,0.044871,0.200242,0.581036,0.000000,0.000000,
133885837,0.560541,18.854366,1,-0.317566,0.003418,-0.006165,-0.948242,-0.120000,0.040000,0.520000,0.070382,-0.096992,0.521577,0.213305,0.426676,0.522232,0.000000,0.000000,
133894860,-0.089346,18.859008,1,-0.317810,0.003418,-0.006165,-0.948120,-0.110000,0.040000,0.560000,0.062231,-0.090439,0.561469,0.119687,0.308927,0.561037,0.000000,0.000000,
133907542,0.375299,18.863649,1,-0.318115,0.003418,-0.006165,-0.947998,-0.110000,0.040000,0.560000,0.062162,-0.090475,0.561469,0.206211,0.417038,0.561464,0.000000,0.000000,
133916380,-0.089346,18.859008,1,-0.318420,0.003418,-0.006165,-0.947937,-0.120000,0.060000,0.520000,0.058118,-0.113059,0.521768,0.114284,0.293055,0.522205,0.000000,0.000000,
133925217,0.374781,18.854366,1,-0.318665,0.003418,-0.006165,-0.947815,-0.090000,0.060000,0.560000,0.034035,-0.094402,0.561452,0.200869,0.405469,0.561019,0.000000,0.000000,
133937535,-0.088827,18.868291,1,-0.318848,0.003418,-0.006165,-0.947754,-0.090000,0.060000,0.540000,0.034049,-0.094693,0.541454,0.112345,0.296946,0.541669,0.000000,0.000000,
133946152,0.189539,18.863649,1,-0.318970,0.003418,-0.006165,-0.947754,-0.090000,0.040000,0.520000,0.046180,-0.079061,0.521266,0.139881,0.334842,0.521490,0.000000,0.000000,
133955031,0.003794,18.863649,1,-0.318970,0.003418,-0.006165,-0.947754,-0.090000,0.040000,0.520000,0.046180,-0.079061,0.521266,0.099036,0.283870,0.521268,0.000000,0.000000,
133967656,0.375299,18.863649,1,-0.318909,0.003418,-0.006165,-0.947754,-0.110000,0.000000,0.560000,0.086194,-0.058725,0.561090,0.191885,0.400370,0.560651,0.000000,0.000000,
133976522,0.096918,18.868291,1,-0.318726,0.003418,-0.006165,-0.947815,-0.120000,-0.020000,0.560000,0.106271,-0.048799,0.561003,0.164729,0.363904,0.560999,0.000000,0.000000,
133985361,0.096918,18.868291,1,-0.318542,0.003418,-0.006165,-0.947876,-0.090000,0.020000,0.520000,0.058326,-0.063075,0.521075,0.146103,0.340392,0.521515,0.000000,0.000000,
133997816,-0.088308,18.877575,1,-0.318298,0.003418,-0.006165,-0.947937,-0.140000,0.060000,0.520000,0.074076,-0.125100,0.521976,0.074651,0.253122,0.521971,0.000000,0.000000,
134006397,0.189539,18.863649,1,-0.318054,0.003418,-0.006165,-0.948059,-0.110000,0.080000,0.520000,0.038168,-0.122937,0.521854,0.114005,0.307847,0.521855,0.000000,0.000000,
134015388,0.469461,18.868291,1,-0.317810,0.003418,-0.006165,-0.948120,-0.090000,0.060000,0.560000,0.034218,-0.094345,0.561451,0.231357,0.459353,0.561015,0.000000,0.000000,
134028038,0.097956,18.877575,1,-0.317627,0.003418,-0.006165,-0.948181,-0.070000,0.100000,0.520000,-0.005700,-0.114764,0.521628,0.194100,0.412502,0.522062,0.000000,0.000000,
134036895,0.189539,18.863649,1,-0.317444,0.003418,-0.006165,-0.948242,-0.050000,0.100000,0.580000,-0.021776,-0.101895,0.581414,0.196300,0.415643,0.580760,0.000000,0.000000,
134045701,-0.274572,18.868291,1,-0.317322,0.003418,-0.006165,-0.948303,-0.010000,0.100000,0.560000,-0.053641,-0.078114,0.561001,0.048116,0.223604,0.561218,0.000000,0.000000,
134058172,1.027262,18.868291,1,-0.317139,0.003418,-0.006165,-0.948364,-0.070000,0.080000,0.540000,0.006406,-0.098524,0.541436,0.367386,0.624762,0.541654,0.000000,0.000000,
134066984,-0.088827,18.868291,1,-0.317017,0.003418,-0.006165,-0.948425,-0.090000,0.100000,0.520000,0.010442,-0.126813,0.521836,0.225247,0.428429,0.522055,0.000000,0.000000,
134075865,0.003794,18.863649,1,-0.316833,0.003418,-0.006165,-0.948425,-0.050000,0.120000,0.540000,-0.033560,-0.118449,0.541609,0.157655,0.340724,0.541394,0.000000,0.000000,
134088492,0.004816,18.872933,1,-0.316772,0.003418,-0.006165,-0.948486,-0.090000,0.120000,0.540000,-0.001567,-0.142507,0.542025,0.112593,0.285861,0.542018,0.000000,0.000000,
134097330,-0.274572,18.868291,1,-0.316711,0.003418,-0.006165,-0.948486,-0.110000,0.060000,0.560000,0.050432,-0.106278,0.561659,-0.010235,0.119107,0.561442,0.000000,0.000000,
134106052,0.096918,18.868291,1,-0.316711,0.003418,-0.006165,-0.948486,-0.110000,0.060000,0.560000,0.050432,-0.106278,0.561659,0.025388,0.169058,0.561656,0.000000,0.000000,
134118457,0.469461,18.868291,1,-0.316711,0.003418,-0.006165,-0.948486,-0.110000,0.080000,0.560000,0.038415,-0.122264,0.561849,0.171035,0.355314,0.561847,0.000000,0.000000,
134127055,-0.274572,18.868291,1,-0.316772,0.003418,-0.006165,-0.948486,-0.110000,0.060000,0.560000,0.050425,-0.106291,0.561659,0.029929,0.163619,0.561661,0.000000,0.000000,
134136116,0.096918,18.868291,1,-0.316956,0.003418,-0.006165,-0.948425,-0.110000,0.040000,0.560000,0.062408,-0.090329,0.561468,0.053034,0.196571,0.561471,0.000000,0.000000,
134148729,-0.088827,18.868291,1,-0.317200,0.003418,-0.006165,-0.948364,-0.090000,0.080000,0.540000,0.022374,-0.110564,0.541644,0.009690,0.145876,0.541862,0.000000,0.000000,
134157596,0.282679,18.868291,1,-0.317383,0.003418,-0.006165,-0.948242,-0.090000,0.040000,0.520000,0.046442,-0.078895,0.521265,0.099423,0.272077,0.521492,0.000000,0.000000,
134166371,0.096918,18.868291,1,-0.317627,0.003418,-0.006165,-0.948181,-0.090000,0.080000,0.560000,0.022208,-0.110293,0.561642,0.101024,0.275947,0.561199,0.000000,0.000000,
134178961,0.190058,18.872933,1,-0.317810,0.003418,-0.006165,-0.948120,-0.070000,0.080000,0.580000,0.006154,-0.097973,0.581432,0.133333,0.319453,0.581209,0.000000,0.000000,
134187561,0.282679,18.868291,1,-0.317993,0.003418,-0.006165,-0.948059,-0.140000,0.060000,0.560000,0.074066,-0.124504,0.561971,0.184457,0.390893,0.562183,0.000000,0.000000,
134196534,-0.553961,18.872933,1,-0.318115,0.003418,-0.006165,-0.947998,-0.090000,0.130000,0.560000,-0.008074,-0.150181,0.562117,-0.050195,0.085966,0.562118,0.000000,0.000000,
134209084,0.003794,18.863649,1,-0.318237,0.003418,-0.006165,-0.947998,-0.120000,0.060000,0.520000,0.058162,-0.113037,0.521768,-0.031617,0.114510,0.522212,0.000000,0.000000,
134217971,0.282679,18.868291,1,-0.318298,0.003418,-0.006165,-0.947937,-0.120000,0.060000,0.540000,0.058080,-0.112755,0.541766,0.071229,0.259637,0.541550,0.000000,0.000000,
134226702,-0.088827,18.868291,1,-0.318298,0.003418,-0.006165,-0.947937,-0.140000,0.060000,0.560000,0.073973,-0.124546,0.561972,0.021873,0.196669,0.561747,0.000000,0.000000,
134239176,-0.367193,18.872933,1,-0.318298,0.003418,-0.006165,-0.947937,-0.090000,0.060000,0.560000,0.034111,-0.094375,0.561451,-0.101419,0.045225,0.561455,0.000000,0.000000,
134247860,-0.274572,18.868291,1,-0.318298,0.003418,-0.006165,-0.947937,-0.120000,0.060000,0.540000,0.058080,-0.112755,0.541766,-0.157067,-0.027233,0.541983,0.000000,0.000000,
134256867,0.376322,18.872933,1,-0.318298,0.003418,-0.006165,-0.947937,-0.110000,0.060000,0.540000,0.050107,-0.106721,0.541662,0.014784,0.202241,0.541665,0.000000,0.000000,
134269508,0.282679,18.868291,1,-0.318359,0.003418,-0.006165,-0.947937,-0.120000,0.100000,0.540000,0.033929,-0.144656,0.542146,0.104037,0.318699,0.542141,0.000000,0.000000,
134278226,0.096918,18.868291,1,-0.318420,0.003418,-0.006165,-0.947937,-0.140000,0.080000,0.560000,0.061886,-0.140522,0.562162,0.104531,0.320402,0.561941,0.000000,0.000000,
134287030,0.282679,18.868291,1,-0.318481,0.003418,-0.006165,-0.947876,-0.140000,0.120000,0.520000,0.037798,-0.172947,0.522546,0.164855,0.400570,0.522980,0.000000,0.000000,
134307382,0.189539,18.863649,1,-0.318604,0.003418,-0.006165,-0.947876,-0.110000,0.060000,0.500000,0.050154,-0.107320,0.501666,0.181172,0.420871,0.501901,0.000000,0.000000,
134316754,0.003794,18.863649,1,-0.318604,0.003418,-0.006165,-0.947876,-0.050000,0.080000,0.520000,-0.009799,-0.086745,0.521229,0.126532,0.328267,0.521016,0.000000,0.000000,
134326610,0.096399,18.859008,1,-0.318604,0.003418,-0.006165,-0.947876,-0.090000,0.080000,0.560000,0.021980,-0.110348,0.561642,0.119927,0.318800,0.561194,0.000000,0.000000,
134339545,0.096918,18.868291,1,-0.318604,0.003418,-0.006165,-0.947876,-0.050000,0.040000,0.560000,0.014260,-0.054312,0.560845,0.116567,0.315249,0.560849,0.000000,0.000000,
134348470,0.003794,18.863649,1,-0.318542,0.003418,-0.006165,-0.947876,-0.070000,0.080000,0.540000,0.006099,-0.098539,0.541436,0.082565,0.264771,0.541649,0.000000,0.000000,
134357412,0.003794,18.863649,1,-0.318481,0.003418,-0.006165,-0.947876,-0.140000,0.080000,0.580000,0.061797,-0.140237,0.582160,0.059398,0.234377,0.581714,0.000000,0.000000,
134370022,0.282160,18.859008,1,-0.318359,0.003418,-0.006165,-0.947937,-0.090000,0.040000,0.560000,0.046177,-0.078442,0.561261,0.134711,0.336485,0.561487,0.000000,0.000000,
134378607,0.190058,18.872933,1,-0.318298,0.003418,-0.006165,-0.947998,-0.140000,0.040000,0.540000,0.086125,-0.108894,0.541783,0.155584,0.366444,0.542001,0.000000,0.000000,
134387575,0.096918,18.868291,1,-0.318176,0.003418,-0.006165,-0.947998,-0.090000,0.020000,0.520000,0.058377,-0.063029,0.521075,0.139942,0.346161,0.521305,0.000000,0.000000,
134400141,-0.089346,18.859008,1,-0.318054,0.003418,-0.006165,-0.948059,-0.090000,0.060000,0.560000,0.034174,-0.094368,0.561451,0.070137,0.259369,0.561009,0.000000,0.000000,
134408999,0.189539,18.863649,1,-0.317993,0.003418,-0.006165,-0.948059,-0.110000,0.080000,0.540000,0.038126,-0.122647,0.541852,0.111143,0.317353,0.542063,0.000000,0.000000,
134420844,-0.088827,18.868291,1,-0.317871,0.003418,-0.006165,-0.948120,-0.070000,0.040000,0.520000,0.030411,-0.066897,0.521057,0.050155,0.239284,0.521288,0.000000,0.000000,
134429767,0.189539,18.863649,1,-0.317810,0.003418,-0.006165,-0.948120,-0.010000,0.060000,0.540000,-0.029566,-0.046414,0.540621,0.097467,0.306003,0.540408,0.000000,0.000000,
134438490,-0.088827,18.868291,1,-0.317749,0.003418,-0.006165,-0.948181,-0.110000,0.100000,0.540000,0.026153,-0.138604,0.542042,0.040049,0.232257,0.542024,0.000000,0.000000,
134450682,0.096918,18.868291,1,-0.317627,0.003418,-0.006165,-0.948181,-0.070000,0.080000,0.540000,0.006296,-0.098525,0.541436,0.061297,0.261810,0.541442,0.000000,0.000000,
134459503,-0.181448,18.872933,1,-0.317505,0.003418,-0.006165,-0.948242,-0.090000,0.130000,0.560000,-0.007866,-0.150212,0.562118,-0.014903,0.160633,0.561890,0.000000,0.000000,
134468041,-0.088308,18.877575,1,-0.317444,0.003418,-0.006165,-0.948242,-0.070000,0.080000,0.520000,0.006387,-0.098799,0.521438,-0.037167,0.134569,0.521883,0.000000,0.000000,
134480566,0.190058,18.872933,1,-0.317383,0.003418,-0.006165,-0.948303,-0.070000,0.080000,0.520000,0.006409,-0.098812,0.521438,0.037932,0.231505,0.521443,0.000000,0.000000,
134489424,-0.088827,18.868291,1,-0.317322,0.003418,-0.006165,-0.948303,-0.050000,0.040000,0.560000,0.014417,-0.054271,0.560845,-0.001008,0.180910,0.560411,0.000000,0.000000,
134498292,-0.088827,18.868291,1,-0.317322,0.003418,-0.006165,-0.948303,-0.090000,0.080000,0.540000,0.022339,-0.110563,0.541644,-0.027699,0.149063,0.541850,0.000000,0.000000,
134510621,0.469461,18.868291,1,-0.317383,0.003418,-0.006165,-0.948303,-0.110000,0.040000,0.560000,0.062331,-0.090391,0.561469,0.134823,0.356660,0.561253,0.000000,0.000000,
134519202,-0.274572,18.868291,1,-0.317444,0.003418,-0.006165,-0.948242,-0.090000,0.040000,0.520000,0.046438,-0.078905,0.521265,0.005465,0.180962,0.521705,0.000000,0.000000,
134528177,0.096918,18.868291,1,-0.317566,0.003418,-0.006165,-0.948181,-0.070000,0.060000,0.540000,0.018350,-0.082555,0.541245,0.036590,0.223791,0.541030,0.000000,0.000000,
134540884,-0.367697,18.863649,1,-0.317688,0.003418,-0.006165,-0.948181,-0.050000,0.040000,0.580000,0.014321,-0.054005,0.580843,-0.091210,0.067847,0.580404,0.000000,0.000000,
134549752,0.096918,18.868291,1,-0.317749,0.003418,-0.006165,-0.948120,-0.090000,0.060000,0.520000,0.034327,-0.094889,0.521455,-0.029653,0.156322,0.522105,0.000000,0.000000,
134558624,0.469461,18.868291,1,-0.317871,0.003418,-0.006165,-0.948120,-0.110000,0.060000,0.560000,0.050170,-0.106409,0.561659,0.132817,0.372427,0.561224,0.000000,0.000000,
134571007,-0.181448,18.872933,1,-0.317932,0.003418,-0.006165,-0.948120,-0.050000,0.080000,0.540000,-0.009720,-0.086487,0.541228,0.035856,0.250895,0.541448,0.000000,0.000000,
134579785,-0.181448,18.872933,1,-0.317932,0.003418,-0.006165,-0.948120,-0.030000,0.100000,0.540000,-0.037737,-0.090388,0.541210,-0.032279,0.159061,0.541213,0.000000,0.000000,
134588668,0.282679,18.868291,1,-0.317932,0.003418,-0.006165,-0.948120,-0.090000,0.080000,0.540000,0.022198,-0.110600,0.541644,0.070756,0.296532,0.541639,0.000000,0.000000,
134601253,0.283701,18.877575,1,-0.317932,0.003418,-0.006165,-0.948120,-0.110000,0.040000,0.500000,0.062376,-0.091296,0.501475,0.143386,0.389564,0.501918,0.000000,0.000000,
134610141,0.562082,18.863649,1,-0.317993,0.003418,-0.006165,-0.948059,-0.010000,0.100000,0.540000,-0.053705,-0.078309,0.541002,0.282502,0.581496,0.540571,0.000000,0.000000,
134618847,0.004816,18.872933,1,-0.318054,0.003418,-0.006165,-0.948059,-0.110000,0.080000,0.540000,0.038117,-0.122659,0.541852,0.197985,0.468338,0.541838,0.000000,0.000000,
134631344,0.096918,18.868291,1,-0.318237,0.003418,-0.006165,-0.947998,-0.070000,0.100000,0.540000,-0.005899,-0.114490,0.541626,0.171204,0.433945,0.541628,0.000000,0.000000,
134639955,0.282679,18.868291,1,-0.318420,0.003418,-0.006165,-0.947937,-0.090000,0.120000,0.520000,-0.002023,-0.142782,0.522026,0.211050,0.488164,0.522242,0.000000,0.000000,
134648875,0.376322,18.872933,1,-0.318604,0.003418,-0.006165,-0.947876,-0.090000,0.060000,0.560000,0.034060,-0.094409,0.561452,0.268732,0.562664,0.561019,0.000000,0.000000,
134661538,0.097956,18.877575,1,-0.318848,0.003418,-0.006165,-0.947754,-0.110000,0.060000,0.560000,0.049929,-0.106503,0.561660,0.220676,0.500155,0.561653,0.000000,0.000000,
134670377,0.096918,18.868291,1,-0.319153,0.003418,-0.006165,-0.947693,-0.120000,0.100000,0.540000,0.033689,-0.144724,0.542146,0.185022,0.449401,0.542361,0.000000,0.000000,
134679133,0.190058,18.872933,1,-0.319397,0.003418,-0.006165,-0.947571,-0.090000,0.080000,0.560000,0.021777,-0.110373,0.561642,0.190603,0.456462,0.561429,0.000000,0.000000,
134691719,0.282679,18.868291,1,-0.319702,0.003418,-0.006165,-0.947510,-0.070000,0.040000,0.560000,0.030039,-0.066463,0.561054,0.226172,0.501184,0.561058,0.000000,0.000000,
134700295,0.376322,18.872933,1,-0.320007,0.003418,-0.006165,-0.947388,-0.120000,0.020000,0.540000,0.081925,-0.081169,0.541387,0.279118,0.573233,0.541604,0.000000,0.000000,
134709288,-0.553961,18.872933,1,-0.320312,0.003418,-0.006165,-0.947266,-0.070000,0.100000,0.540000,-0.006424,-0.114452,0.541625,0.015518,0.226321,0.541625,0.000000,0.000000,
134721915,0.005854,18.882217,1,-0.320618,0.003418,-0.006165,-0.947205,-0.090000,0.080000,0.520000,0.021597,-0.111001,0.521646,0.015291,0.228944,0.521866,0.000000,0.000000,
134730793,0.469965,18.877575,1,-0.320984,0.003418,-0.006165,-0.947083,-0.090000,0.080000,0.580000,0.021358,-0.110187,0.581640,0.164692,0.438932,0.580981,0.000000,0.000000,
134739441,0.096918,18.868291,1,-0.321289,0.003418,-0.006165,-0.946960,-0.090000,0.100000,0.540000,0.009209,-0.126619,0.541833,0.146635,0.414648,0.542265,0.000000,0.000000,
134751959,0.005854,18.882217,1,-0.321716,0.003418,-0.006165,-0.946838,-0.070000,0.060000,0.540000,0.017606,-0.082733,0.541246,0.106342,0.363819,0.541257,0.000000,0.000000,
134760588,0.004816,18.872933,1,-0.322083,0.003418,-0.006165,-0.946655,-0.120000,0.080000,0.540000,0.044949,-0.129067,0.541957,0.076624,0.322955,0.541949,0.000000,0.000000,
134769599,-0.553961,18.872933,1,-0.322510,0.003418,-0.006165,-0.946533,-0.030000,0.040000,0.540000,-0.002012,-0.042497,0.540638,-0.123905,0.061076,0.540653,0.000000,0.000000,
134782181,0.283701,18.877575,1,-0.322876,0.003418,-0.006165,-0.946411,-0.070000,0.080000,0.540000,0.005163,-0.098597,0.541435,0.008767,0.235509,0.541426,0.000000,0.000000,
134791040,0.097956,18.877575,1,-0.323303,0.003418,-0.006165,-0.946289,-0.110000,0.120000,0.540000,0.012239,-0.154722,0.542231,0.039778,0.280535,0.542222,0.000000,0.000000,
134799764,0.283701,18.877575,1,-0.323669,0.003418,-0.006104,-0.946167,-0.120000,0.080000,0.500000,0.044604,-0.129852,0.501948,0.120976,0.389271,0.502392,0.000000,0.000000,
134812214,0.190058,18.872933,1,-0.323975,0.003418,-0.006104,-0.946045,-0.090000,0.040000,0.520000,0.045279,-0.079609,0.521260,0.148205,0.424133,0.521053,0.000000,0.000000,
134820724,0.375299,18.863649,1,-0.324280,0.003418,-0.006104,-0.945923,-0.120000,0.040000,0.500000,0.068959,-0.098314,0.501575,0.225364,0.530379,0.501790,0.000000,0.000000,
134829841,0.283701,18.877575,1,-0.324585,0.003418,-0.006104,-0.945862,-0.120000,0.040000,0.500000,0.068912,-0.098369,0.501576,0.249041,0.559572,0.501578,0.000000,0.000000,
134842469,0.097956,18.877575,1,-0.324890,0.003418,-0.006104,-0.945740,-0.110000,0.040000,0.520000,0.060899,-0.091990,0.521469,0.207264,0.503868,0.521250,0.000000,0.000000,
134851289,0.282679,18.868291,1,-0.325134,0.003479,-0.006104,-0.945618,-0.120000,0.060000,0.580000,0.056204,-0.113081,0.581765,0.236174,0.543139,0.581099,0.000000,0.000000,
134860091,0.282679,18.868291,1,-0.325439,0.003479,-0.006104,-0.945557,-0.050000,0.060000,0.520000,0.001127,-0.070881,0.521033,0.255988,0.567661,0.521695,0.000000,0.000000,
134872484,-0.181448,18.872933,1,-0.325684,0.003479,-0.006104,-0.945435,-0.030000,0.120000,0.540000,-0.051677,-0.105544,0.541376,0.121566,0.393898,0.541159,0.000000,0.000000,
134881434,0.655725,18.877575,1,-0.325989,0.003479,-0.006104,-0.945374,-0.090000,0.130000,0.580000,-0.010761,-0.149833,0.582098,0.298189,0.639401,0.581647,0.000000,0.000000,
134890267,0.004816,18.872933,1,-0.326294,0.003479,-0.006104,-0.945251,-0.010000,0.080000,0.520000,-0.042830,-0.061949,0.520796,0.209146,0.518250,0.521466,0.000000,0.000000,
134902910,-0.181448,18.872933,1,-0.326660,0.003479,-0.006104,-0.945129,-0.010000,0.100000,0.540000,-0.055283,-0.077373,0.540979,0.089347,0.363753,0.540764,0.000000,0.000000,
134911467,0.282679,18.868291,1,-0.327148,0.003479,-0.006104,-0.944946,-0.050000,0.100000,0.540000,-0.023930,-0.102041,0.541401,0.155126,0.456084,0.541394,0.000000,0.000000,
134920331,0.097956,18.877575,1,-0.327637,0.003479,-0.006104,-0.944763,-0.070000,0.100000,0.560000,-0.008388,-0.114115,0.561610,0.140742,0.436709,0.561387,0.000000,0.000000,
134932850,0.469965,18.877575,1,-0.328186,0.003479,-0.006104,-0.944580,-0.120000,0.120000,0.560000,0.018303,-0.160797,0.562324,0.252746,0.579317,0.562313,0.000000,0.000000,
134941691,0.282679,18.868291,1,-0.328735,0.003479,-0.006104,-0.944397,-0.010000,0.100000,0.560000,-0.055690,-0.076852,0.560975,0.267588,0.597784,0.560989,0.000000,0.000000,
134950589,0.376322,18.872933,1,-0.329346,0.003479,-0.006104,-0.944214,-0.090000,0.100000,0.540000,0.006908,-0.126820,0.541823,0.308032,0.649176,0.542034,0.000000,0.000000,
134963133,0.376322,18.872933,1,-0.329956,0.003479,-0.006104,-0.943970,-0.120000,0.120000,0.500000,0.017840,-0.161700,0.502329,0.338312,0.683744,0.502767,0.000000,0.000000,
134971736,0.097956,18.877575,1,-0.330688,0.003479,-0.006104,-0.943726,-0.070000,0.040000,0.560000,0.028307,-0.067199,0.561056,0.266337,0.579667,0.560413,0.000000,0.000000,
134980747,0.283701,18.877575,1,-0.331421,0.003479,-0.006104,-0.943481,-0.090000,0.060000,0.560000,0.031299,-0.095360,0.561452,0.277188,0.592130,0.561441,0.000000,0.000000,
134993288,0.562586,18.872933,1,-0.332214,0.003479,-0.006104,-0.943176,-0.050000,0.050000,0.520000,0.006322,-0.063102,0.520940,0.377009,0.716882,0.521386,0.000000,0.000000,
135002126,0.283701,18.877575,1,-0.333008,0.003479,-0.006104,-0.942932,-0.050000,0.110000,0.560000,-0.031567,-0.109264,0.561487,0.353123,0.679541,0.561045,0.000000,0.000000,
135011003,0.004816,18.872933,1,-0.333801,0.003479,-0.006104,-0.942627,-0.050000,0.090000,0.540000,-0.019124,-0.093935,0.541305,0.246711,0.534639,0.541522,0.000000,0.000000,
135023459,-0.088308,18.877575,1,-0.334656,0.003540,-0.006104,-0.942322,-0.090000,0.070000,0.540000,0.024292,-0.103586,0.541554,0.145004,0.402440,0.541553,0.000000,0.000000,
135032033,0.191080,18.882217,1,-0.335449,0.003540,-0.006104,-0.942017,-0.010000,0.090000,0.540000,-0.050525,-0.068561,0.540875,0.163401,0.427935,0.540883,0.000000,0.000000,
135040907,-0.086767,18.886859,1,-0.336304,0.003540,-0.006104,-0.941711,-0.070000,0.130000,0.580000,-0.029674,-0.136863,0.581881,0.086497,0.326561,0.581429,0.000000,0.000000,
135053522,0.004816,18.872933,1,-0.337158,0.003540,-0.006104,-0.941406,-0.010000,0.110000,0.540000,-0.063484,-0.083830,0.541056,0.064236,0.299723,0.541500,0.000000,0.000000,
135062382,0.469461,18.868291,1,-0.338013,0.003540,-0.006104,-0.941101,-0.090000,0.090000,0.500000,0.010896,-0.119737,0.501740,0.198251,0.487822,0.502178,0.000000,0.000000,
135071260,-0.088308,18.877575,1,-0.338928,0.003540,-0.006104,-0.940796,-0.120000,0.130000,0.520000,0.008210,-0.169431,0.522425,0.110073,0.369199,0.522202,0.000000,0.000000,
135083746,1.120905,18.872933,1,-0.339905,0.003540,-0.006104,-0.940430,-0.070000,0.130000,0.540000,-0.030649,-0.137200,0.541882,0.441840,0.795571,0.541665,0.000000,0.000000,
135092346,0.469461,18.868291,1,-0.340881,0.003540,-0.006042,-0.940063,-0.070000,0.090000,0.580000,-0.005430,-0.105943,0.581503,0.457653,0.813100,0.581064,0.000000,0.000000,
135101252,0.005854,18.882217,1,-0.341919,0.003540,-0.006042,-0.939697,-0.090000,0.110000,0.520000,-0.003050,-0.134936,0.521903,0.319103,0.624874,0.522554,0.000000,0.000000,
135113865,0.097956,18.877575,1,-0.343018,0.003540,-0.006042,-0.939270,-0.050000,0.110000,0.560000,-0.034062,-0.108593,0.561466,0.255474,0.540533,0.561038,0.000000,0.000000,
135122693,0.004816,18.872933,1,-0.344177,0.003601,-0.006042,-0.938843,-0.030000,0.050000,0.560000,-0.010885,-0.049788,0.560716,0.179018,0.431640,0.560719,0.000000,0.000000,
135131547,0.376322,18.872933,1,-0.345398,0.003540,-0.006042,-0.938416,-0.050000,0.110000,0.540000,-0.034580,-0.108706,0.541466,0.246570,0.521365,0.541679,0.000000,0.000000,
135144034,-0.088308,18.877575,1,-0.346741,0.003540,-0.006042,-0.937927,-0.070000,0.090000,0.540000,-0.006702,-0.106431,0.541504,0.144755,0.389116,0.541506,0.000000,0.000000,
135152834,0.190058,18.872933,1,-0.348083,0.003540,-0.006042,-0.937439,-0.010000,0.070000,0.560000,-0.039471,-0.051834,0.560674,0.162883,0.414604,0.560463,0.000000,0.000000,
135161677,0.191080,18.882217,1,-0.349487,0.003540,-0.006042,-0.936890,-0.110000,0.050000,0.500000,0.049166,-0.102909,0.501588,0.175673,0.431158,0.502236,0.000000,0.000000,
135174262,-0.459799,18.877575,1,-0.350952,0.003540,-0.005981,-0.936401,-0.050000,0.070000,0.540000,-0.009636,-0.078231,0.541099,-0.024503,0.174529,0.540671,0.000000,0.000000,
135183115,0.004816,18.872933,1,-0.352356,0.003540,-0.005981,-0.935852,-0.120000,0.070000,0.560000,0.042687,-0.124086,0.561856,-0.013432,0.192835,0.561622,0.000000,0.000000,
135191942,-0.088308,18.877575,1,-0.353821,0.003540,-0.005981,-0.935303,-0.070000,0.050000,0.540000,0.018090,-0.076413,0.541142,-0.035888,0.165325,0.541368,0.000000,0.000000,
135204375,-0.088308,18.877575,1,-0.355225,0.003479,-0.005920,-0.934753,-0.090000,0.070000,0.540000,0.019553,-0.104782,0.541515,-0.050753,0.150287,0.541513,0.000000,0.000000,
135212972,-0.088308,18.877575,1,-0.356689,0.003418,-0.005920,-0.934204,-0.090000,0.030000,0.540000,0.045937,-0.075051,0.541163,-0.061608,0.137921,0.541167,0.000000,0.000000,
135224908,-0.180929,18.882217,1,-0.358093,0.003418,-0.005920,-0.933655,-0.120000,0.030000,0.560000,0.067958,-0.094977,0.561481,-0.098583,0.093695,0.561257,0.000000,0.000000,
135233482,0.096918,18.868291,1,-0.359619,0.003357,-0.005859,-0.933105,-0.090000,0.050000,0.560000,0.032023,-0.089992,0.561318,-0.034412,0.187268,0.561317,0.000000,0.000000,
135242345,-0.088308,18.877575,1,-0.361084,0.003357,-0.005859,-0.932495,-0.050000,0.030000,0.560000,0.015618,-0.048365,0.560729,-0.050124,0.169226,0.560735,0.000000,0.000000,
135262733,0.376322,18.872933,1,-0.364197,0.003235,-0.005798,-0.931335,-0.090000,0.090000,0.540000,0.004105,-0.120077,0.541635,0.092778,0.356369,0.541845,0.000000,0.000000,
135272002,0.190058,18.872933,1,-0.365784,0.003174,-0.005737,-0.930664,-0.060000,0.070000,0.580000,-0.004713,-0.084568,0.581141,0.128267,0.415887,0.580708,0.000000,0.000000,
135281533,0.469461,18.868291,1,-0.367432,0.003113,-0.005737,-0.929993,-0.040000,0.130000,0.560000,-0.060537,-0.114951,0.561442,0.243981,0.592714,0.561655,0.000000,0.000000,
135295810,0.189539,18.863649,1,-0.369141,0.003052,-0.005737,-0.929382,-0.020000,0.050000,0.500000,-0.020476,-0.043640,0.500576,0.234648,0.574269,0.501250,0.000000,0.000000,
135304296,0.003794,18.863649,1,-0.370789,0.003052,-0.005676,-0.928711,-0.060000,0.090000,0.580000,-0.019329,-0.099145,0.581290,0.163940,0.461400,0.580408,0.000000,0.000000,
135313108,0.190058,18.872933,1,-0.372559,0.002991,-0.005676,-0.927979,-0.040000,0.010000,0.560000,0.021239,-0.027732,0.560428,0.176510,0.478369,0.560648,0.000000,0.000000,
135325271,0.190058,18.872933,1,-0.374390,0.002930,-0.005615,-0.927246,-0.060000,0.030000,0.560000,0.021660,-0.056184,0.560780,0.186768,0.491041,0.560778,0.000000,0.000000,
135334091,0.190058,18.872933,1,-0.376221,0.002869,-0.005615,-0.926514,-0.040000,0.010000,0.560000,0.021094,-0.028018,0.560420,0.192188,0.497486,0.560424,0.000000,0.000000,
135342928,0.190058,18.872933,1,-0.378113,0.002808,-0.005554,-0.925720,-0.100000,0.030000,0.540000,0.049856,-0.084721,0.541143,0.195917,0.501354,0.541355,0.000000,0.000000,
135355424,0.004816,18.872933,1,-0.380005,0.002747,-0.005493,-0.924988,-0.130000,0.060000,0.520000,0.049811,-0.127689,0.521649,0.140382,0.429279,0.521866,0.000000,0.000000,
135364246,0.096918,18.868291,1,-0.382019,0.002686,-0.005493,-0.924133,-0.070000,0.040000,0.560000,0.020894,-0.070911,0.560923,0.130108,0.414782,0.560493,0.000000,0.000000,
135372817,-0.646048,18.877575,1,-0.384155,0.002625,-0.005432,-0.923279,0.190000,-0.220000,0.620000,0.021710,0.297321,0.616478,-0.116705,0.091548,0.615861,0.000000,0.000000,
135385297,-0.459799,18.877575,1,-0.386292,0.002563,-0.005432,-0.922363,-0.070000,-0.350000,0.600000,0.298211,0.202853,0.597767,-0.226397,-0.039605,0.597967,0.000000,0.000000,
135393996,-0.552923,18.882217,1,-0.388489,0.002441,-0.005249,-0.921448,-0.140000,-0.180000,0.580000,0.226377,0.032148,0.579762,-0.332406,-0.179132,0.579963,0.000000,0.000000,
135402933,0.655725,18.877575,1,-0.390442,0.002380,-0.005188,-0.920593,-0.260000,-0.200000,0.540000,0.324311,-0.041741,0.540619,-0.015313,0.239538,0.541053,0.000000,0.000000,
135415603,-0.088308,18.877575,1,-0.392151,0.002441,-0.005188,-0.919861,-0.280000,-0.240000,0.520000,0.366790,-0.029888,0.520532,-0.035839,0.216486,0.520758,0.000000,0.000000,
135424410,0.097956,18.877575,1,-0.393433,0.002441,-0.005127,-0.919312,-0.410000,-0.240000,0.560000,0.456392,-0.124552,0.561657,0.009429,0.281247,0.561206,0.000000,0.000000,
135433093,0.377344,18.882217,1,-0.394287,0.002441,-0.005127,-0.919006,-0.160000,-0.180000,0.520000,0.240492,0.014001,0.519982,0.130584,0.441507,0.520436,0.000000,0.000000,
135445543,0.097956,18.877575,1,-0.394653,0.002441,-0.005127,-0.918823,-0.220000,-0.040000,0.560000,0.180240,-0.125651,0.561541,0.125578,0.435249,0.561088,0.000000,0.000000,
135454299,0.097956,18.877575,1,-0.394653,0.002441,-0.005127,-0.918823,-0.340000,-0.070000,0.560000,0.284620,-0.192022,0.562341,0.120468,0.427898,0.562327,0.000000,0.000000,
135463261,0.005854,18.882217,1,-0.394409,0.002441,-0.005127,-0.918945,-0.160000,-0.060000,0.430000,0.153540,-0.069761,0.430887,0.087346,0.383495,0.432336,0.000000,0.000000,
135475858,-0.088308,18.877575,1,-0.393982,0.002502,-0.005127,-0.919067,-0.140000,-0.100000,0.560000,0.168627,-0.026063,0.560428,0.035412,0.318798,0.559016,0.000000,0.000000,
135484568,-0.366674,18.882217,1,-0.393494,0.002563,-0.005066,-0.919312,-0.140000,-0.040000,0.620000,0.125135,-0.066648,0.620886,-0.092028,0.143972,0.620204,0.000000,0.000000,
135493341,0.005854,18.882217,1,-0.392883,0.002625,-0.005005,-0.919556,-0.180000,0.020000,0.620000,0.109413,-0.136894,0.621680,-0.059163,0.190856,0.621664,0.000000,0.000000,
135505890,0.005854,18.882217,1,-0.392151,0.002625,-0.005005,-0.919861,-0.280000,0.050000,0.540000,0.157293,-0.230530,0.542774,-0.035703,0.224172,0.543643,0.000000,0.000000,
135514658,0.097956,18.877575,1,-0.391296,0.002686,-0.004944,-0.920227,0.320000,0.010000,0.480000,-0.229696,0.228883,0.477220,0.009569,0.288142,0.477952,0.000000,0.000000,
135523586,-0.086767,18.886859,1,-0.390198,0.002747,-0.004883,-0.920715,-0.160000,0.110000,0.600000,0.031488,-0.184778,0.602135,-0.018921,0.252708,0.600766,0.000000,0.000000,
135536223,0.283701,18.877575,1,-0.388794,0.002747,-0.004822,-0.921326,0.010000,-0.010000,0.660000,-0.000679,0.021414,0.659804,0.082221,0.385144,0.659153,0.000000,0.000000,
135544807,0.655725,18.877575,1,-0.387268,0.002686,-0.004822,-0.921936,-0.110000,0.110000,0.500000,-0.002162,-0.150054,0.501674,0.271327,0.647723,0.503410,0.000000,0.000000,
135553748,0.563105,18.882217,1,-0.385925,0.002686,-0.004883,-0.922546,-0.200000,0.090000,0.460000,0.075812,-0.200508,0.462340,0.371283,0.775381,0.462793,0.000000,0.000000,
135566301,-0.086248,18.896143,1,-0.384766,0.002808,-0.004883,-0.923035,0.070000,0.070000,0.480000,-0.099690,0.005803,0.479823,0.233063,0.593708,0.479636,0.000000,0.000000,
135575162,0.005854,18.882217,1,-0.383667,0.002869,-0.004944,-0.923462,0.030000,0.090000,0.580000,-0.085818,-0.035672,0.580313,0.164729,0.496709,0.579204,0.000000,0.000000,
135584038,0.283701,18.877575,1,-0.382690,0.002869,-0.004944,-0.923889,0.030000,0.110000,0.540000,-0.099822,-0.050456,0.540456,0.207563,0.552265,0.540883,0.000000,0.000000,
135596530,0.377344,18.882217,1,-0.381836,0.002808,-0.004944,-0.924194,-0.130000,0.090000,0.500000,0.027852,-0.149853,0.501763,0.269425,0.628433,0.502194,0.000000,0.000000,
135605146,0.283701,18.877575,1,-0.381287,0.002808,-0.005005,-0.924438,-0.130000,0.220000,0.520000,-0.063611,-0.241737,0.522701,0.279483,0.639360,0.522475,0.000000,0.000000,
135613977,-0.088308,18.877575,1,-0.380920,0.002747,-0.005005,-0.924561,-0.070000,0.090000,0.580000,-0.014453,-0.106590,0.581229,0.166497,0.488644,0.580582,0.000000,0.000000,
135626077,0.283701,18.877575,1,-0.380615,0.002747,-0.005005,-0.924683,-0.010000,0.080000,0.580000,-0.049949,-0.057265,0.580624,0.210332,0.543643,0.580624,0.000000,0.000000,
135634943,0.376322,18.872933,1,-0.380310,0.002747,-0.005005,-0.924805,-0.140000,0.060000,0.600000,0.056510,-0.134300,0.601635,0.268898,0.622572,0.601404,0.000000,0.000000,
135644091,0.377344,18.882217,1,-0.380066,0.002747,-0.005066,-0.924927,-0.030000,0.100000,0.480000,-0.049569,-0.086690,0.480964,0.309608,0.672839,0.482292,0.000000,0.000000,
135656690,-0.459280,18.886859,1,-0.379944,0.002747,-0.005066,-0.924988,-0.010000,0.020000,0.560000,-0.007635,-0.014836,0.560198,0.069317,0.362168,0.559339,0.000000,0.000000,
135665312,0.470484,18.886859,1,-0.379822,0.002747,-0.005066,-0.925049,0.010000,0.060000,0.580000,-0.049994,-0.029014,0.580309,0.202455,0.548828,0.580078,0.000000,0.000000,
135674206,0.004816,18.872933,1,-0.379761,0.002747,-0.005066,-0.925049,-0.090000,0.060000,0.580000,0.021160,-0.099272,0.581202,0.143573,0.469787,0.581190,0.000000,0.000000,
135686940,0.284220,18.886859,1,-0.379761,0.002686,-0.005066,-0.925049,-0.090000,0.080000,0.540000,0.007218,-0.113984,0.541345,0.195110,0.534631,0.541784,0.000000,0.000000,
135695772,0.097956,18.877575,1,-0.379883,0.002686,-0.005127,-0.924988,-0.110000,0.120000,0.460000,-0.006591,-0.157347,0.461837,0.168354,0.494604,0.462718,0.000000,0.000000,
135704648,0.470484,18.886859,1,-0.380310,0.002686,-0.005127,-0.924866,-0.140000,0.040000,0.540000,0.070796,-0.120689,0.541503,0.270328,0.629237,0.540635,0.000000,0.000000,
135716997,0.377344,18.882217,1,-0.380798,0.002686,-0.005127,-0.924622,-0.050000,0.150000,0.560000,-0.070732,-0.135233,0.561521,0.312766,0.680502,0.561291,0.000000,0.000000,
135725467,-0.180929,18.882217,1,-0.381409,0.002625,-0.005127,-0.924377,0.070000,0.080000,0.580000,-0.106589,-0.000701,0.579946,0.158679,0.463064,0.579741,0.000000,0.000000,
135734486,0.005854,18.882217,1,-0.382019,0.002563,-0.005127,-0.924133,-0.070000,0.040000,0.520000,0.020896,-0.071800,0.520872,0.113575,0.403178,0.521521,0.000000,0.000000,
135747234,-0.366674,18.882217,1,-0.382874,0.002502,-0.005066,-0.923767,-0.180000,0.080000,0.500000,0.070250,-0.178221,0.502094,-0.036630,0.211925,0.502308,0.000000,0.000000,
135756121,-0.274054,18.877575,1,-0.383789,0.002502,-0.005066,-0.923401,-0.110000,0.100000,0.560000,0.006302,-0.142183,0.561644,-0.111699,0.109101,0.560990,0.000000,0.000000,
135764942,-0.086767,18.886859,1,-0.384705,0.002502,-0.005066,-0.923035,0.080000,-0.060000,0.520000,-0.014085,0.104917,0.518840,-0.102665,0.124417,0.519304,0.000000,0.000000,
135777402,0.377344,18.882217,1,-0.385681,0.002502,-0.005066,-0.922607,0.130000,-0.100000,0.560000,-0.020548,0.169071,0.558114,0.054253,0.330280,0.557687,0.000000,0.000000,
135786106,0.469965,18.877575,1,-0.386658,0.002441,-0.005066,-0.922241,-0.200000,-0.060000,0.620000,0.182651,-0.093604,0.621198,0.191849,0.523674,0.620498,0.000000,0.000000,
135795000,0.377344,18.882217,1,-0.387634,0.002380,-0.005005,-0.921814,-0.180000,-0.070000,0.520000,0.175679,-0.073911,0.520940,0.256399,0.607530,0.522037,0.000000,0.000000,
135807635,0.191080,18.882217,1,-0.388672,0.002319,-0.004944,-0.921387,-0.220000,-0.120000,0.540000,0.239268,-0.067923,0.540877,0.242983,0.587386,0.540669,0.000000,0.000000,
135816504,-0.088308,18.877575,1,-0.389526,0.002380,-0.004944,-0.921021,-0.260000,-0.060000,0.540000,0.223883,-0.138837,0.541674,0.140820,0.441870,0.541663,0.000000,0.000000,
135825195,-0.180929,18.882217,1,-0.390259,0.002380,-0.004944,-0.920715,-0.260000,-0.060000,0.580000,0.223641,-0.138754,0.581673,0.040806,0.308450,0.581232,0.000000,0.000000,
135837696,0.098978,18.886859,1,-0.390808,0.002441,-0.004883,-0.920471,-0.240000,-0.110000,0.580000,0.245449,-0.089943,0.581181,0.063525,0.339714,0.581182,0.000000,0.000000,
135846292,0.005854,18.882217,1,-0.391235,0.002502,-0.004822,-0.920288,-0.260000,-0.090000,0.540000,0.244777,-0.118921,0.541524,0.047784,0.318315,0.541961,0.000000,0.000000,
135855303,0.284220,18.886859,1,-0.391479,0.002563,-0.004761,-0.920166,-0.070000,0.030000,0.540000,0.026393,-0.065418,0.540762,0.126977,0.423786,0.540775,0.000000,0.000000,
135867933,0.191080,18.882217,1,-0.391479,0.002625,-0.004700,-0.920166,-0.130000,-0.050000,0.540000,0.125552,-0.053204,0.540745,0.153116,0.457133,0.540746,0.000000,0.000000,
135876763,0.469461,18.868291,1,-0.391235,0.002625,-0.004639,-0.920288,-0.220000,-0.030000,0.560000,0.173590,-0.131669,0.561635,0.259724,0.605817,0.561405,0.000000,0.000000,
135885451,0.470484,18.886859,1,-0.390930,0.002686,-0.004578,-0.920410,-0.050000,-0.010000,0.520000,0.041205,-0.023563,0.520334,0.333048,0.701049,0.520786,0.000000,0.000000,
135897979,0.098978,18.886859,1,-0.390442,0.002686,-0.004578,-0.920593,-0.140000,0.010000,0.560000,0.089347,-0.101695,0.561224,0.266153,0.611487,0.560779,0.000000,0.000000,
135906533,0.005854,18.882217,1,-0.389893,0.002747,-0.004578,-0.920837,-0.030000,-0.010000,0.620000,0.027136,-0.008027,0.620161,0.187087,0.499042,0.619506,0.000000,0.000000,
135915601,-0.459280,18.886859,1,-0.389221,0.002747,-0.004578,-0.921143,0.090000,0.150000,0.520000,-0.171075,-0.034523,0.520139,-0.016972,0.228741,0.521234,0.000000,0.000000,
135928052,0.376322,18.872933,1,-0.388428,0.002747,-0.004578,-0.921448,-0.070000,0.110000,0.600000,-0.030775,-0.120561,0.601262,0.113178,0.399278,0.600380,0.000000,0.000000,
135936889,0.098978,18.886859,1,-0.387756,0.002686,-0.004578,-0.921753,-0.130000,0.180000,0.560000,-0.038550,-0.212902,0.562218,0.112127,0.397816,0.562638,0.000000,0.000000,
135945663,0.284220,18.886859,1,-0.387268,0.002686,-0.004578,-0.921936,-0.010000,0.150000,0.540000,-0.100874,-0.106451,0.541009,0.171193,0.476492,0.541247,0.000000,0.000000,
135958263,0.005854,18.882217,1,-0.386902,0.002747,-0.004639,-0.922119,0.050000,0.110000,0.540000,-0.114322,-0.035626,0.540243,0.123742,0.414943,0.540254,0.000000,0.000000,
135966867,0.097956,18.877575,1,-0.386719,0.002686,-0.004700,-0.922180,0.010000,0.150000,0.520000,-0.114685,-0.092407,0.520872,0.118976,0.407715,0.521086,0.000000,0.000000,
135975905,-0.086767,18.886859,1,-0.386658,0.002686,-0.004700,-0.922180,-0.110000,0.180000,0.560000,-0.052011,-0.198578,0.562098,0.056267,0.324861,0.561646,0.000000,0.000000,
135988513,0.377344,18.882217,1,-0.386719,0.002625,-0.004761,-0.922180,-0.110000,0.180000,0.540000,-0.051918,-0.198769,0.542121,0.164331,0.465130,0.542336,0.000000,0.000000,
135997353,0.842523,18.877575,1,-0.387024,0.002563,-0.004761,-0.922058,-0.090000,0.030000,0.560000,0.041043,-0.079217,0.560928,0.388352,0.779104,0.560723,0.000000,0.000000,
136009076,-0.179907,18.891501,1,-0.387451,0.002563,-0.004822,-0.921875,0.010000,-0.060000,0.580000,0.035292,0.055435,0.579467,0.213299,0.540610,0.579260,0.000000,0.000000,
136017651,0.098978,18.886859,1,-0.388000,0.002563,-0.004822,-0.921631,-0.110000,-0.010000,0.560000,0.083475,-0.065588,0.560829,0.180910,0.493487,0.561032,0.000000,0.000000,
136026449,-0.180929,18.882217,1,-0.388550,0.002563,-0.004822,-0.921387,-0.140000,0.010000,0.580000,0.089987,-0.100908,0.581220,0.068507,0.344076,0.580998,0.000000,0.000000,
136038767,-0.179907,18.891501,1,-0.388977,0.002563,-0.004761,-0.921204,-0.140000,-0.010000,0.540000,0.104235,-0.087542,0.541080,-0.007543,0.248385,0.541520,0.000000,0.000000,
136047640,0.469965,18.877575,1,-0.389343,0.002563,-0.004761,-0.921082,-0.110000,-0.030000,0.560000,0.097600,-0.051960,0.560691,0.149347,0.467933,0.560480,0.000000,0.000000,
136056497,0.563105,18.882217,1,-0.389587,0.002625,-0.004761,-0.920959,-0.130000,-0.090000,0.560000,0.154485,-0.024556,0.560472,0.287058,0.649948,0.560472,0.000000,0.000000,
136069023,0.006357,18.891501,1,-0.389771,0.002625,-0.004761,-0.920898,-0.140000,0.030000,0.540000,0.075318,-0.115543,0.541366,0.204428,0.540656,0.541577,0.000000,0.000000,
136077720,0.097956,18.877575,1,-0.389832,0.002625,-0.004761,-0.920837,-0.200000,0.010000,0.500000,0.131445,-0.145136,0.501747,0.174649,0.496760,0.502186,0.000000,0.000000,
136086497,0.284220,18.886859,1,-0.389954,0.002686,-0.004700,-0.920837,-0.180000,0.070000,0.540000,0.074302,-0.172174,0.541978,0.214392,0.548435,0.541539,0.000000,0.000000,
136098976,-0.086767,18.886859,1,-0.389954,0.002686,-0.004700,-0.920837,-0.090000,-0.050000,0.580000,0.097800,-0.023603,0.580413,0.123869,0.431386,0.579985,0.000000,0.000000,
136107830,0.191080,18.882217,1,-0.389832,0.002747,-0.004700,-0.920898,-0.110000,-0.010000,0.540000,0.083004,-0.066184,0.540862,0.149488,0.466566,0.541293,0.000000,0.000000,
136116683,0.285761,18.896143,1,-0.389587,0.002747,-0.004700,-0.920959,-0.050000,0.010000,0.560000,0.026860,-0.036796,0.560468,0.197635,0.530082,0.560257,0.000000,0.000000,
136129170,-0.366156,18.891501,1,-0.389282,0.002747,-0.004700,-0.921082,-0.030000,0.110000,0.580000,-0.058794,-0.091899,0.580944,0.021873,0.303485,0.580716,0.000000,0.000000,
136137774,-0.180929,18.882217,1,-0.388916,0.002747,-0.004700,-0.921265,0.070000,0.070000,0.540000,-0.099747,0.007166,0.539814,-0.041203,0.216108,0.540265,0.000000,0.000000,
136146610,0.098978,18.886859,1,-0.388428,0.002747,-0.004700,-0.921448,0.010000,0.090000,0.520000,-0.072142,-0.050062,0.520470,0.005965,0.280622,0.520688,0.000000,0.000000,
136159229,0.470484,18.886859,1,-0.387939,0.002747,-0.004700,-0.921692,-0.070000,0.130000,0.520000,-0.044770,-0.135320,0.521428,0.159832,0.479096,0.521420,0.000000,0.000000,
136168093,0.006876,18.900784,1,-0.387573,0.002747,-0.004700,-0.921814,-0.110000,0.160000,0.560000,-0.038178,-0.184472,0.561970,0.114520,0.414560,0.561523,0.000000,0.000000,
136176986,-0.366156,18.891501,1,-0.387390,0.002747,-0.004700,-0.921875,-0.090000,0.110000,0.540000,-0.016361,-0.135421,0.541471,-0.037002,0.211982,0.541692,0.000000,0.000000,
136189586,0.098978,18.886859,1,-0.387390,0.002686,-0.004761,-0.921875,0.010000,0.030000,0.540000,-0.029108,-0.007986,0.540082,0.009730,0.275436,0.540100,0.000000,0.000000,
136198163,0.005854,18.882217,1,-0.387512,0.002686,-0.004822,-0.921875,-0.070000,0.070000,0.560000,-0.001712,-0.092848,0.561051,0.010856,0.278479,0.560820,0.000000,0.000000,
136207054,0.006876,18.900784,1,-0.387756,0.002686,-0.004822,-0.921753,-0.090000,-0.030000,0.600000,0.083656,-0.036771,0.600541,0.012071,0.282111,0.600104,0.000000,0.000000,
136227682,-0.366156,18.891501,1,-0.388550,0.002686,-0.004822,-0.921387,-0.140000,-0.030000,0.520000,0.118570,-0.073594,0.520982,-0.105659,0.135932,0.521854,0.000000,0.000000,
136237136,0.191080,18.882217,1,-0.388794,0.002686,-0.004761,-0.921326,-0.160000,-0.010000,0.520000,0.118153,-0.101997,0.521286,-0.006129,0.307444,0.521292,0.000000,0.000000,
136246715,0.655222,18.868291,1,-0.388916,0.002686,-0.004761,-0.921265,-0.130000,-0.010000,0.560000,0.097144,-0.080097,0.561024,0.213645,0.649083,0.560587,0.000000,0.000000,
136259428,0.191080,18.882217,1,-0.388916,0.002747,-0.004761,-0.921265,-0.130000,-0.010000,0.560000,0.097081,-0.080070,0.561039,0.214556,0.645501,0.561034,0.000000,0.000000,
136268292,0.562586,18.872933,1,-0.388794,0.002747,-0.004761,-0.921326,-0.090000,0.070000,0.500000,0.011965,-0.107859,0.501223,0.333973,0.821597,0.501882,0.000000,0.000000,
136277441,-0.367193,18.872933,1,-0.388672,0.002747,-0.004761,-0.921387,-0.110000,0.030000,0.580000,0.054498,-0.093394,0.581128,0.113948,0.508190,0.580255,0.000000,0.000000,
136289910,0.191080,18.882217,1,-0.388489,0.002747,-0.004761,-0.921448,-0.050000,0.070000,0.540000,-0.015945,-0.078776,0.540870,0.145377,0.548303,0.541304,0.000000,0.000000,
136298491,-0.088308,18.877575,1,-0.388367,0.002747,-0.004761,-0.921509,-0.070000,0.030000,0.560000,0.026650,-0.064945,0.560779,0.074231,0.445270,0.560564,0.000000,0.000000,
136307451,0.097956,18.877575,1,-0.388306,0.002747,-0.004761,-0.921509,-0.090000,0.070000,0.580000,0.011967,-0.106966,0.581218,0.085909,0.460669,0.580991,0.000000,0.000000,
136320211,0.190058,18.872933,1,-0.388306,0.002747,-0.004761,-0.921509,-0.010000,0.050000,0.560000,-0.029564,-0.035967,0.560386,0.125557,0.510876,0.560613,0.000000,0.000000,
136329069,-0.273550,18.886859,1,-0.388306,0.002747,-0.004761,-0.921509,-0.050000,0.090000,0.540000,-0.030228,-0.092745,0.541003,0.000677,0.335015,0.541219,0.000000,0.000000,
136337929,-0.088308,18.877575,1,-0.388306,0.002747,-0.004761,-0.921509,-0.110000,0.050000,0.600000,0.040221,-0.107093,0.601259,-0.025067,0.302310,0.600598,0.000000,0.000000,
136350400,-0.088308,18.877575,1,-0.388306,0.002747,-0.004761,-0.921509,-0.110000,0.150000,0.560000,-0.031292,-0.177367,0.561926,-0.041714,0.283344,0.562352,0.000000,0.000000,
136359198,0.097956,18.877575,1,-0.388245,0.002747,-0.004761,-0.921570,-0.050000,0.030000,0.540000,0.012725,-0.050846,0.540605,0.006046,0.350566,0.540844,0.000000,0.000000,
136368051,0.006357,18.891501,1,-0.388184,0.002747,-0.004761,-0.921570,-0.110000,0.030000,0.560000,0.054619,-0.093549,0.561129,0.009272,0.355666,0.560905,0.000000,0.000000,
136380564,-0.180929,18.882217,1,-0.388184,0.002747,-0.004761,-0.921570,-0.140000,-0.060000,0.560000,0.139973,-0.052139,0.560794,-0.047742,0.285078,0.560795,0.000000,0.000000,
136389421,-0.459280,18.886859,1,-0.388184,0.002747,-0.004761,-0.921570,-0.140000,-0.010000,0.560000,0.104198,-0.087069,0.561126,-0.178494,0.106387,0.561122,0.000000,0.000000,
136398223,0.098978,18.886859,1,-0.388245,0.002747,-0.004761,-0.921509,-0.110000,-0.070000,0.580000,0.126122,-0.023495,0.580464,-0.088004,0.229011,0.580250,0.000000,0.000000,
136410698,0.656244,18.886859,1,-0.388367,0.002747,-0.004761,-0.921509,-0.130000,-0.030000,0.540000,0.111529,-0.066205,0.540907,0.155541,0.539242,0.541340,0.000000,0.000000,
136419304,0.563105,18.882217,1,-0.388428,0.002747,-0.004761,-0.921448,-0.070000,-0.010000,0.580000,0.055240,-0.036799,0.580512,0.292154,0.725974,0.580080,0.000000,0.000000,
136428348,0.377344,18.882217,1,-0.388428,0.002747,-0.004761,-0.921448,-0.070000,0.090000,0.540000,-0.016291,-0.107050,0.541178,0.326222,0.766662,0.541607,0.000000,0.000000,
136441039,0.098978,18.886859,1,-0.388367,0.002747,-0.004761,-0.921509,-0.090000,0.090000,0.560000,-0.002329,-0.121162,0.561352,0.262489,0.680849,0.561135,0.000000,0.000000,
136449926,-0.272513,18.896143,1,-0.388245,0.002747,-0.004761,-0.921570,-0.090000,0.090000,0.560000,-0.002294,-0.121166,0.561352,0.095179,0.445167,0.561350,0.000000,0.000000,
136458511,0.470484,18.886859,1,-0.388123,0.002747,-0.004761,-0.921570,-0.090000,0.070000,0.540000,0.012061,-0.107393,0.541221,0.220136,0.609948,0.541442,0.000000,0.000000,
136471053,0.563105,18.882217,1,-0.388123,0.002747,-0.004761,-0.921570,-0.090000,0.070000,0.540000,0.012061,-0.107393,0.541221,0.338718,0.756451,0.541223,0.000000,0.000000,
136479606,0.098978,18.886859,1,-0.388123,0.002747,-0.004761,-0.921570,-0.110000,0.090000,0.540000,0.011726,-0.135671,0.541529,0.267589,0.653907,0.541525,0.000000,0.000000,
136488674,0.284220,18.886859,1,-0.388123,0.002747,-0.004761,-0.921570,-0.030000,0.030000,0.540000,-0.001241,-0.036528,0.540429,0.278906,0.665802,0.540441,0.000000,0.000000,
136501282,0.098978,18.886859,1,-0.388123,0.002747,-0.004761,-0.921570,-0.050000,0.070000,0.560000,-0.015911,-0.078561,0.560869,0.229143,0.599113,0.560644,0.000000,0.000000,
136510115,-0.179907,18.891501,1,-0.388123,0.002747,-0.004761,-0.921570,-0.110000,0.010000,0.560000,0.068930,-0.079565,0.560996,0.101914,0.420035,0.560992,0.000000,0.000000,
136518823,0.191599,18.891501,1,-0.388123,0.002747,-0.004761,-0.921570,-0.110000,0.030000,0.580000,0.054595,-0.093319,0.581128,0.134537,0.463334,0.580906,0.000000,0.000000,
136531384,0.377344,18.882217,1,-0.388123,0.002747,-0.004761,-0.921570,-0.140000,0.030000,0.540000,0.075608,-0.115216,0.541393,0.218923,0.569478,0.541828,0.000000,0.000000,
136540103,-0.086248,18.896143,1,-0.388245,0.002747,-0.004761,-0.921570,-0.140000,0.030000,0.540000,0.075602,-0.115247,0.541393,0.125061,0.437191,0.541398,0.000000,0.000000,
136548999,0.935663,18.882217,1,-0.388245,0.002747,-0.004761,-0.921509,-0.180000,-0.010000,0.560000,0.132103,-0.115701,0.561476,0.390541,0.786182,0.561255,0.000000,0.000000,
136561626,0.843042,18.886859,1,-0.388306,0.002747,-0.004761,-0.921509,-0.130000,0.030000,0.520000,0.068612,-0.108311,0.521307,0.546888,0.978510,0.521747,0.000000,0.000000,
136570427,0.191080,18.882217,1,-0.388306,0.002747,-0.004761,-0.921509,-0.110000,-0.010000,0.540000,0.083244,-0.065845,0.540864,0.440223,0.822827,0.540654,0.000000,0.000000,
136579161,0.656244,18.886859,1,-0.388245,0.002747,-0.004761,-0.921509,-0.070000,0.030000,0.540000,0.026684,-0.065148,0.540780,0.517149,0.919770,0.540778,0.000000,0.000000,
136591644,-0.086767,18.886859,1,-0.388184,0.002747,-0.004761,-0.921570,-0.050000,0.070000,0.580000,-0.015946,-0.078348,0.580868,0.333368,0.679335,0.580426,0.000000,0.000000,
136600445,-0.086767,18.886859,1,-0.388062,0.002747,-0.004761,-0.921631,-0.010000,0.070000,0.520000,-0.043795,-0.050399,0.520521,0.203275,0.495288,0.521181,0.000000,0.000000,
136609324,0.377863,18.891501,1,-0.388062,0.002747,-0.004761,-0.921631,-0.050000,0.030000,0.540000,0.012744,-0.050839,0.540605,0.264038,0.574417,0.540391,0.000000,0.000000,
136621920,0.471521,18.896143,1,-0.388062,0.002747,-0.004761,-0.921631,-0.010000,0.110000,0.480000,-0.072354,-0.078788,0.480789,0.338434,0.665841,0.481446,0.000000,0.000000,
136630603,0.006357,18.891501,1,-0.388123,0.002747,-0.004761,-0.921570,-0.050000,0.030000,0.560000,0.012704,-0.050617,0.560603,0.236644,0.520775,0.559731,0.000000,0.000000,
136639399,-0.179907,18.891501,1,-0.388184,0.002747,-0.004761,-0.921570,-0.110000,0.030000,0.520000,0.054673,-0.093986,0.521131,0.106825,0.347917,0.521557,0.000000,0.000000,
136651894,0.098978,18.886859,1,-0.388245,0.002747,-0.004761,-0.921509,-0.090000,0.050000,0.520000,0.026368,-0.093643,0.521089,0.108675,0.351206,0.521094,0.000000,0.000000,
136660777,-0.550863,18.900784,1,-0.388245,0.002747,-0.004761,-0.921509,-0.110000,0.070000,0.560000,0.025970,-0.121485,0.561395,-0.101864,0.059535,0.560950,0.000000,0.000000,
136669647,0.191599,18.891501,1,-0.388245,0.002747,-0.004761,-0.921509,-0.070000,0.050000,0.560000,0.012345,-0.078897,0.560911,-0.006583,0.190006,0.560912,0.000000,0.000000,
136682253,-0.179907,18.891501,1,-0.388245,0.002747,-0.004761,-0.921509,-0.070000,-0.010000,0.560000,0.055279,-0.036995,0.560513,-0.060226,0.125521,0.560517,0.000000,0.000000,
136690839,-0.273550,18.886859,1,-0.388245,0.002747,-0.004761,-0.921509,-0.090000,-0.010000,0.560000,0.069247,-0.051305,0.560688,-0.128247,0.033726,0.560686,0.000000,0.000000,
136699620,0.006357,18.891501,1,-0.388245,0.002747,-0.004761,-0.921509,-0.090000,-0.030000,0.560000,0.083559,-0.037337,0.560555,-0.084497,0.095963,0.560557,0.000000,0.000000,
136712280,-0.178869,18.900784,1,-0.388306,0.002747,-0.004761,-0.921509,-0.130000,0.010000,0.580000,0.082844,-0.093689,0.581170,-0.113761,0.064580,0.580943,0.000000,0.000000,
136721111,0.098978,18.886859,1,-0.388367,0.002747,-0.004761,-0.921509,-0.130000,0.010000,0.500000,0.082952,-0.094576,0.501175,-0.044228,0.165209,0.502054,0.000000,0.000000,
136733002,-0.179907,18.891501,1,-0.388367,0.002747,-0.004761,-0.921509,-0.110000,0.090000,0.540000,0.011666,-0.135695,0.541529,-0.086204,0.113475,0.541094,0.000000,0.000000,
136741857,0.191599,18.891501,1,-0.388306,0.002808,-0.004761,-0.921509,-0.050000,0.070000,0.520000,-0.015946,-0.078971,0.520873,0.004884,0.244190,0.521096,0.000000,0.000000,
136750711,0.564142,18.891501,1,-0.388245,0.002808,-0.004761,-0.921570,-0.110000,0.110000,0.540000,-0.002667,-0.149642,0.541668,0.187665,0.489518,0.541442,0.000000,0.000000,
136762906,0.191599,18.891501,1,-0.388123,0.002808,-0.004761,-0.921570,-0.050000,0.070000,0.560000,-0.015974,-0.078534,0.560871,0.194949,0.497987,0.560657,0.000000,0.000000,
136771483,0.377863,18.891501,1,-0.388062,0.002808,-0.004761,-0.921631,0.010000,0.050000,0.560000,-0.043584,-0.021654,0.560207,0.258462,0.584826,0.560212,0.000000,0.000000,
136780237,0.471521,18.896143,1,-0.388062,0.002747,-0.004761,-0.921631,-0.050000,0.050000,0.600000,-0.001644,-0.064161,0.600734,0.332315,0.680182,0.600287,0.000000,0.000000,
136792891,0.377863,18.891501,1,-0.388062,0.002747,-0.004761,-0.921631,-0.070000,0.030000,0.560000,0.026694,-0.064926,0.560779,0.355694,0.705877,0.561214,0.000000,0.000000,
136801735,-0.366156,18.891501,1,-0.388123,0.002747,-0.004761,-0.921570,-0.140000,-0.030000,0.560000,0.118504,-0.073082,0.560993,0.128081,0.385363,0.560995,0.000000,0.000000,
136810596,-0.366156,18.891501,1,-0.388184,0.002747,-0.004761,-0.921570,-0.090000,0.010000,0.560000,0.054956,-0.065269,0.560821,-0.028023,0.178706,0.560823,0.000000,0.000000,
136822950,0.191599,18.891501,1,-0.388245,0.002747,-0.004761,-0.921509,-0.130000,-0.010000,0.560000,0.097183,-0.079925,0.561038,0.045270,0.276429,0.561036,0.000000,0.000000,
136831544,0.377863,18.891501,1,-0.388245,0.002747,-0.004761,-0.921509,-0.070000,-0.010000,0.540000,0.055307,-0.037213,0.540514,0.155376,0.430869,0.540740,0.000000,0.000000,
136840403,0.098978,18.886859,1,-0.388245,0.002747,-0.004761,-0.921509,-0.090000,0.010000,0.540000,0.054963,-0.065490,0.540822,0.141020,0.411713,0.540821,0.000000,0.000000,
136853002,0.099497,18.896143,1,-0.388245,0.002747,-0.004761,-0.921509,-0.130000,0.010000,0.520000,0.082927,-0.094329,0.521174,0.132818,0.401209,0.521390,0.000000,0.000000,
136861847,0.563105,18.882217,1,-0.388245,0.002747,-0.004761,-0.921509,-0.070000,-0.010000,0.540000,0.055307,-0.037213,0.540514,0.275826,0.600623,0.540303,0.000000,0.000000,
136870736,0.843546,18.896143,1,-0.388245,0.002747,-0.004761,-0.921509,-0.090000,0.010000,0.560000,0.054936,-0.065272,0.560821,0.464481,0.849370,0.560595,0.000000,0.000000,
136883187,0.099497,18.896143,1,-0.388245,0.002747,-0.004761,-0.921509,-0.070000,0.070000,0.580000,-0.001993,-0.092646,0.581043,0.357002,0.705221,0.580818,0.000000,0.000000,
136891752,0.191599,18.891501,1,-0.388245,0.002747,-0.004761,-0.921509,-0.090000,0.090000,0.560000,-0.002309,-0.121142,0.561352,0.309479,0.635125,0.561567,0.000000,0.000000,
136900742,0.006876,18.900784,1,-0.388245,0.002747,-0.004761,-0.921509,-0.050000,0.070000,0.580000,-0.015962,-0.078336,0.580868,0.217555,0.511431,0.580655,0.000000,0.000000,
136913380,0.191599,18.891501,1,-0.388184,0.002747,-0.004761,-0.921570,-0.070000,0.070000,0.540000,-0.001919,-0.093094,0.541045,0.215662,0.507525,0.541482,0.000000,0.000000,
136922212,0.006357,18.891501,1,-0.388184,0.002747,-0.004761,-0.921570,-0.090000,0.090000,0.540000,-0.002257,-0.121374,0.541353,0.152312,0.417086,0.541355,0.000000,0.000000,
136931061,0.006876,18.900784,1,-0.388184,0.002747,-0.004761,-0.921570,-0.070000,0.070000,0.560000,-0.001946,-0.092875,0.561044,0.109060,0.359362,0.560827,0.000000,0.000000,
136943558,-0.272513,18.896143,1,-0.388184,0.002747,-0.004761,-0.921570,-0.110000,0.010000,0.520000,0.068984,-0.080014,0.520998,-0.009895,0.207351,0.521437,0.000000,0.000000,
136952186,0.191080,18.882217,1,-0.388184,0.002747,-0.004761,-0.921570,-0.070000,-0.010000,0.560000,0.055294,-0.036988,0.560513,0.057040,0.303442,0.560082,0.000000,0.000000,
136960996,-0.272513,18.896143,1,-0.388184,0.002747,-0.004761,-0.921570,-0.130000,-0.030000,0.560000,0.111522,-0.065943,0.560905,-0.046622,0.167416,0.560896,0.000000,0.000000,
136973719,0.191599,18.891501,1,-0.388184,0.002747,-0.004761,-0.921570,-0.090000,-0.030000,0.580000,0.083549,-0.037107,0.580554,0.032636,0.273137,0.580337,0.000000,0.000000,
136982595,-0.458777,18.896143,1,-0.388184,0.002747,-0.004761,-0.921570,-0.090000,-0.010000,0.540000,0.069294,-0.051515,0.540689,-0.124246,0.054140,0.541126,0.000000,0.000000,
136991335,-0.179907,18.891501,1,-0.388184,0.002747,-0.004761,-0.921570,-0.090000,0.070000,0.540000,0.012053,-0.107403,0.541221,-0.141726,0.034824,0.541220,0.000000,0.000000,
137003805,-0.272513,18.896143,1,-0.388184,0.002747,-0.004761,-0.921570,-0.140000,0.010000,0.520000,0.089942,-0.101477,0.521261,-0.183570,-0.012914,0.521481,0.000000,0.000000,
137012384,0.191599,18.891501,1,-0.388184,0.002747,-0.004761,-0.921570,-0.130000,0.070000,0.540000,0.039999,-0.136021,0.541571,-0.062116,0.161806,0.541350,0.000000,0.000000,
137021349,-0.086248,18.896143,1,-0.388184,0.002747,-0.004761,-0.921570,-0.130000,0.090000,0.560000,0.025661,-0.149774,0.561703,-0.068431,0.156544,0.561478,0.000000,0.000000,
137033941,0.193140,18.900784,1,-0.388184,0.002747,-0.004761,-0.921570,-0.110000,0.090000,0.560000,0.011689,-0.135465,0.561527,0.018226,0.271975,0.561527,0.000000,0.000000,
137042808,0.377863,18.891501,1,-0.388184,0.002747,-0.004761,-0.921570,-0.070000,0.050000,0.560000,0.012364,-0.078903,0.560911,0.137245,0.440496,0.560918,0.000000,0.000000,
137051643,0.099497,18.896143,1,-0.388184,0.002747,-0.004761,-0.921570,-0.090000,0.030000,0.500000,0.040728,-0.079895,0.500957,0.128966,0.428631,0.501618,0.000000,0.000000,
137064209,0.285761,18.896143,1,-0.388184,0.002747,-0.004761,-0.921570,-0.050000,0.030000,0.560000,0.012701,-0.050622,0.560603,0.185145,0.500865,0.559953,0.000000,0.000000,
137072939,0.006357,18.891501,1,-0.388184,0.002747,-0.004761,-0.921570,-0.070000,0.050000,0.540000,0.012391,-0.079122,0.540913,0.131584,0.424162,0.541122,0.000000,0.000000,
137081826,-0.272513,18.896143,1,-0.388184,0.002747,-0.004761,-0.921570,-0.090000,-0.010000,0.500000,0.069348,-0.051951,0.500692,0.004898,0.254778,0.501137,0.000000,0.000000,
137094450,-0.271490,18.905426,1,-0.388184,0.002747,-0.004761,-0.921570,-0.090000,-0.010000,0.560000,0.069266,-0.051297,0.560688,-0.081300,0.146995,0.560032,0.000000,0.000000,
137103337,-0.085745,18.905426,1,-0.388184,0.002747,-0.004761,-0.921570,-0.110000,0.030000,0.520000,0.054673,-0.093986,0.521131,-0.081414,0.149597,0.521560,0.000000,0.000000,
137111951,0.099497,18.896143,1,-0.388184,0.002747,-0.004761,-0.921570,-0.090000,0.010000,0.520000,0.055011,-0.065705,0.520823,-0.021691,0.232370,0.520831,0.000000,0.000000,
137124446,-0.272513,18.896143,1,-0.388184,0.002747,-0.004761,-0.921570,-0.110000,0.030000,0.540000,0.054646,-0.093768,0.541130,-0.099888,0.135391,0.540906,0.000000,0.000000,
137133034,0.191599,18.891501,1,-0.388184,0.002747,-0.004761,-0.921570,-0.130000,-0.010000,0.560000,0.097211,-0.079915,0.561038,-0.004276,0.272276,0.560816,0.000000,0.000000,
137142104,-0.272513,18.896143,1,-0.388184,0.002747,-0.004761,-0.921570,-0.110000,0.050000,0.560000,0.040309,-0.107521,0.561262,-0.088364,0.162892,0.561257,0.000000,0.000000,
137154723,-0.645025,18.896143,1,-0.388184,0.002747,-0.004761,-0.921570,-0.090000,0.010000,0.560000,0.054956,-0.065269,0.560821,-0.266442,-0.061512,0.560826,0.000000,0.000000,
137163525,0.564142,18.891501,1,-0.388184,0.002747,-0.004761,-0.921570,-0.070000,0.050000,0.560000,0.012364,-0.078903,0.560911,0.002333,0.322420,0.560910,0.000000,0.000000,
137172253,-0.179907,18.891501,1,-0.388184,0.002747,-0.004761,-0.921570,-0.090000,-0.010000,0.520000,0.069321,-0.051733,0.520690,-0.053677,0.248272,0.521134,0.000000,0.000000,
137192686,0.193140,18.900784,1,-0.388184,0.002747,-0.004761,-0.921570,-0.070000,0.050000,0.560000,0.012364,-0.078903,0.560911,0.032185,0.362055,0.560473,0.000000,0.000000,
137201995,0.097956,18.877575,1,-0.388184,0.002747,-0.004761,-0.921570,-0.130000,0.070000,0.520000,0.040026,-0.136239,0.521572,0.057331,0.403642,0.522001,0.000000,0.000000,
137211846,-0.086767,18.886859,1,-0.388184,0.002747,-0.004761,-0.921570,-0.130000,0.030000,0.580000,0.068564,-0.107640,0.581303,0.014111,0.336640,0.580649,0.000000,0.000000,
137251612,-0.645544,18.886859,1,-0.388184,0.002747,-0.004761,-0.921570,-0.130000,-0.010000,0.560000,0.097211,-0.079915,0.561038,-0.196526,0.044998,0.561254,0.000000,0.000000,
137261222,0.003794,18.863649,1,-0.388184,0.002747,-0.004761,-0.921570,-0.110000,0.030000,0.540000,0.054646,-0.093768,0.541130,-0.125119,0.216166,0.541352,0.000000,0.000000,
137270150,0.375299,18.863649,1,-0.388184,0.002747,-0.004761,-0.921570,-0.130000,-0.030000,0.540000,0.111549,-0.066161,0.540907,0.047270,0.558105,0.540912,0.000000,0.000000,
137281587,0.003794,18.863649,1,-0.388184,0.002747,-0.004761,-0.921570,-0.090000,-0.010000,0.520000,0.069321,-0.051733,0.520690,0.039167,0.539477,0.520913,0.000000,0.000000,
137291170,0.004816,18.872933,1,-0.388184,0.002747,-0.004761,-0.921570,-0.110000,0.010000,0.580000,0.068902,-0.079359,0.580995,0.033023,0.527025,0.580333,0.000000,0.000000,
137300207,0.096918,18.868291,1,-0.388184,0.002747,-0.004761,-0.921570,-0.090000,0.070000,0.520000,0.012081,-0.107621,0.521222,0.058680,0.562082,0.521873,0.000000,0.000000,
137311839,-0.088308,18.877575,1,-0.388184,0.002747,-0.004761,-0.921570,-0.050000,0.070000,0.520000,-0.015864,-0.079003,0.520871,0.017420,0.504134,0.520883,0.000000,0.000000,
137321318,-0.088308,18.877575,1,-0.388184,0.002747,-0.004761,-0.921570,-0.070000,0.090000,0.580000,-0.016284,-0.106629,0.581176,-0.012111,0.463040,0.580511,0.000000,0.000000,
137329613,0.376322,18.872933,1,-0.388184,0.002747,-0.004761,-0.921570,-0.070000,0.050000,0.560000,0.012364,-0.078903,0.560911,0.117195,0.630143,0.561127,0.000000,0.000000,
137340968,-0.088308,18.877575,1,-0.388184,0.002747,-0.004761,-0.921570,-0.070000,0.070000,0.520000,-0.001892,-0.093312,0.521047,0.058098,0.556126,0.521488,0.000000,0.000000,
137349304,0.004816,18.872933,1,-0.388184,0.002747,-0.004761,-0.921570,-0.030000,0.030000,0.560000,-0.001271,-0.036313,0.560428,0.045580,0.539098,0.559999,0.000000,0.000000,
137357321,0.283701,18.877575,1,-0.388184,0.002747,-0.004761,-0.921570,-0.030000,0.030000,0.560000,-0.001271,-0.036313,0.560428,0.126328,0.634726,0.560423,0.000000,0.000000,
137368282,0.283701,18.877575,1,-0.388184,0.002747,-0.004761,-0.921570,-0.110000,0.010000,0.540000,0.068956,-0.079796,0.540997,0.183823,0.697746,0.541211,0.000000,0.000000,
137376019,-0.180929,18.882217,1,-0.388184,0.002747,-0.004761,-0.921570,-0.070000,0.010000,0.500000,0.041066,-0.051614,0.500649,0.072197,0.560661,0.501096,0.000000,0.000000,
137384590,0.377344,18.882217,1,-0.388184,0.002747,-0.004761,-0.921570,-0.160000,0.010000,0.560000,0.103860,-0.115350,0.561434,0.174666,0.676106,0.560769,0.000000,0.000000,
137396383,0.284220,18.886859,1,-0.388184,0.002747,-0.004761,-0.921570,-0.110000,0.050000,0.520000,0.040363,-0.107958,0.521264,0.217827,0.721420,0.521699,0.000000,0.000000,
137405190,0.656244,18.886859,1,-0.388184,0.002747,-0.004761,-0.921570,-0.110000,0.010000,0.560000,0.068929,-0.079578,0.560996,0.365206,0.899598,0.560563,0.000000,0.000000,
137413997,0.191599,18.891501,1,-0.388184,0.002747,-0.004761,-0.921570,-0.070000,0.050000,0.520000,0.012418,-0.079340,0.520914,0.317423,0.837682,0.521351,0.000000,0.000000,
137426245,0.006357,18.891501,1,-0.388184,0.002747,-0.004761,-0.921570,-0.090000,0.010000,0.560000,0.054956,-0.065269,0.560821,0.227601,0.727777,0.560386,0.000000,0.000000,
137435100,0.470484,18.886859,1,-0.388184,0.002747,-0.004761,-0.921570,-0.070000,0.030000,0.580000,0.026646,-0.064713,0.580777,0.312414,0.833536,0.580553,0.000000,0.000000,
137446957,-0.179907,18.891501,1,-0.388184,0.002747,-0.004761,-0.921570,-0.070000,0.030000,0.540000,0.026701,-0.065150,0.540780,0.163379,0.644309,0.541218,0.000000,0.000000,
137455784,0.284220,18.886859,1,-0.388184,0.002747,-0.004761,-0.921570,-0.090000,0.110000,0.560000,-0.016594,-0.135128,0.561485,0.208130,0.700560,0.561262,0.000000,0.000000,
137464369,0.377863,18.891501,1,-0.388184,0.002747,-0.004761,-0.921570,-0.090000,0.090000,0.580000,-0.002311,-0.120938,0.581351,0.268803,0.774155,0.581130,0.000000,0.000000,
137476614,0.377863,18.891501,1,-0.388184,0.002747,-0.004761,-0.921570,-0.090000,0.070000,0.560000,0.012026,-0.107184,0.561219,0.313493,0.823324,0.561439,0.000000,0.000000,
137485202,-0.273550,18.886859,1,-0.388184,0.002747,-0.004761,-0.921570,-0.090000,0.030000,0.540000,0.040674,-0.079459,0.540955,0.131029,0.579081,0.541181,0.000000,0.000000,
137493932,0.471521,18.896143,1,-0.388184,0.002747,-0.004761,-0.921570,-0.110000,0.050000,0.580000,0.040281,-0.107303,0.581261,0.245666,0.720851,0.580819,0.000000,0.000000,
137506475,0.284220,18.886859,1,-0.388184,0.002747,-0.004761,-0.921570,-0.110000,-0.010000,0.580000,0.083212,-0.065387,0.580862,0.267190,0.743116,0.580861,0.000000,0.000000,
137515343,-0.271490,18.905426,1,-0.388184,0.002747,-0.004761,-0.921570,-0.140000,-0.010000,0.500000,0.104280,-0.087724,0.501130,0.099675,0.516361,0.502008,0.000000,0.000000,
137524182,0.564142,18.891501,1,-0.388245,0.002747,-0.004761,-0.921509,-0.090000,-0.030000,0.500000,0.083641,-0.037992,0.500559,0.253894,0.710824,0.500575,0.000000,0.000000,
137536519,0.471521,18.896143,1,-0.388245,0.002747,-0.004761,-0.921509,-0.110000,0.010000,0.540000,0.068931,-0.079801,0.540997,0.332963,0.803602,0.540552,0.000000,0.000000,
137545330,0.285761,18.896143,1,-0.388245,0.002747,-0.004761,-0.921509,-0.130000,-0.030000,0.560000,0.111495,-0.065958,0.560906,0.324803,0.788153,0.560681,0.000000,0.000000,
137554231,0.471521,18.896143,1,-0.388245,0.002747,-0.004761,-0.921509,-0.090000,0.010000,0.580000,0.054909,-0.065054,0.580820,0.379120,0.853595,0.580598,0.000000,0.000000,
137566853,0.006876,18.900784,1,-0.388245,0.002747,-0.004761,-0.921509,-0.110000,0.070000,0.520000,0.026025,-0.121921,0.521397,0.269683,0.712005,0.522049,0.000000,0.000000,
137575730,0.284220,18.886859,1,-0.388184,0.002747,-0.004761,-0.921570,-0.070000,0.090000,0.520000,-0.016202,-0.107284,0.521179,0.280729,0.722997,0.521189,0.000000,0.000000,
137584464,0.006876,18.900784,1,-0.388184,0.002747,-0.004761,-0.921570,-0.110000,0.050000,0.560000,0.040309,-0.107521,0.561262,0.198771,0.613971,0.560820,0.000000,0.000000,
137596851,0.099497,18.896143,1,-0.388184,0.002747,-0.004761,-0.921570,-0.110000,0.110000,0.540000,-0.002594,-0.149655,0.541661,0.174350,0.580995,0.541873,0.000000,0.000000,
137605459,-0.271490,18.905426,1,-0.388184,0.002747,-0.004761,-0.921570,-0.070000,0.070000,0.560000,-0.001946,-0.092875,0.561044,0.035179,0.391187,0.560833,0.000000,0.000000,
137614419,0.377863,18.891501,1,-0.388184,0.002747,-0.004761,-0.921570,-0.050000,0.030000,0.520000,0.012756,-0.051059,0.520606,0.149140,0.537049,0.521049,0.000000,0.000000,
137627050,0.006357,18.891501,1,-0.388184,0.002747,-0.004761,-0.921570,-0.130000,0.030000,0.520000,0.068646,-0.108295,0.521306,0.109829,0.486452,0.521304,0.000000,0.000000,
137635903,-0.086248,18.896143,1,-0.388184,0.002747,-0.004761,-0.921570,-0.110000,0.010000,0.580000,0.068902,-0.079359,0.580995,0.050684,0.405172,0.580337,0.000000,0.000000,
137644720,-0.086248,18.896143,1,-0.388184,0.002747,-0.004761,-0.921570,-0.070000,0.010000,0.520000,0.041038,-0.051396,0.520648,0.010114,0.352471,0.521306,0.000000,0.000000,
137657269,-0.178869,18.900784,1,-0.388184,0.002747,-0.004761,-0.921570,-0.130000,-0.030000,0.560000,0.111522,-0.065943,0.560905,-0.046501,0.283313,0.560469,0.000000,0.000000,
137665807,0.285761,18.896143,1,-0.388184,0.002747,-0.004761,-0.921570,-0.110000,0.010000,0.540000,0.068956,-0.079796,0.540997,0.063465,0.434777,0.541212,0.000000,0.000000,
137674882,0.006876,18.900784,1,-0.388184,0.002747,-0.004761,-0.921570,-0.070000,0.050000,0.520000,0.012418,-0.079340,0.520914,0.049185,0.415998,0.521137,0.000000,0.000000,
137687479,0.193140,18.900784,1,-0.388184,0.002747,-0.004761,-0.921570,-0.090000,0.090000,0.520000,-0.002229,-0.121593,0.521355,0.101008,0.480852,0.521352,0.000000,0.000000,
137696366,0.564646,18.900784,1,-0.388184,0.002747,-0.004761,-0.921570,-0.110000,0.090000,0.540000,0.011716,-0.135683,0.541529,0.255461,0.691595,0.541306,0.000000,0.000000,
137705044,-0.085745,18.905426,1,-0.388184,0.002747,-0.004761,-0.921570,-0.050000,0.070000,0.540000,-0.015892,-0.078784,0.540870,0.151416,0.552402,0.540875,0.000000,0.000000,
137717518,0.099497,18.896143,1,-0.388184,0.002747,-0.004761,-0.921570,-0.010000,0.050000,0.540000,-0.029527,-0.036195,0.540387,0.141569,0.538160,0.540392,0.000000,0.000000,
137726142,0.471521,18.896143,1,-0.388123,0.002747,-0.004761,-0.921570,-0.030000,0.050000,0.540000,-0.015549,-0.050500,0.540562,0.253015,0.688804,0.540560,0.000000,0.000000,
137735204,-0.272513,18.896143,1,-0.388123,0.002747,-0.004761,-0.921570,-0.070000,0.090000,0.560000,-0.016247,-0.106840,0.561177,0.089800,0.474541,0.560950,0.000000,0.000000,
137747878,0.378900,18.900784,1,-0.388123,0.002747,-0.004761,-0.921570,-0.070000,0.050000,0.540000,0.012396,-0.079114,0.540913,0.189351,0.598955,0.541133,0.000000,0.000000,
137756677,0.471521,18.896143,1,-0.388123,0.002747,-0.004761,-0.921570,-0.130000,0.030000,0.540000,0.068622,-0.108062,0.541305,0.286050,0.729874,0.541303,0.000000,0.000000,
137765362,0.099497,18.896143,1,-0.388123,0.002747,-0.004761,-0.921570,-0.030000,0.010000,0.540000,0.013067,-0.022556,0.540297,0.232224,0.655651,0.540308,0.000000,0.000000,
137777814,0.657785,18.896143,1,-0.388123,0.002747,-0.004761,-0.921570,-0.110000,0.010000,0.540000,0.068957,-0.079784,0.540997,0.377986,0.835007,0.540990,0.000000,0.000000,
137786471,0.006357,18.891501,1,-0.388123,0.002747,-0.004761,-0.921570,-0.130000,-0.010000,0.520000,0.097265,-0.080336,0.521041,0.264944,0.674576,0.521261,0.000000,0.000000,
137795522,0.193140,18.900784,1,-0.388123,0.002747,-0.004761,-0.921570,-0.110000,0.030000,0.560000,0.054622,-0.093537,0.561129,0.247912,0.649552,0.560689,0.000000,0.000000,
137808129,-0.457739,18.905426,1,-0.388123,0.002747,-0.004761,-0.921570,-0.090000,0.050000,0.520000,0.026396,-0.093639,0.521089,0.027923,0.368072,0.521525,0.000000,0.000000,
137816856,0.378900,18.900784,1,-0.388123,0.002747,-0.004761,-0.921570,-0.070000,0.030000,0.580000,0.026649,-0.064706,0.580777,0.144846,0.530353,0.580124,0.000000,0.000000,
137825684,-0.178869,18.900784,1,-0.388123,0.002747,-0.004761,-0.921570,-0.050000,0.030000,0.560000,0.012704,-0.050617,0.560603,0.045105,0.398344,0.560818,0.000000,0.000000,
137838225,0.099497,18.896143,1,-0.388123,0.002747,-0.004761,-0.921570,-0.070000,0.030000,0.540000,0.026704,-0.065142,0.540780,0.067732,0.427320,0.541001,0.000000,0.000000,
137847059,0.099497,18.896143,1,-0.388123,0.002747,-0.004761,-0.921570,-0.090000,0.070000,0.560000,0.012034,-0.107174,0.561219,0.081818,0.446483,0.560997,0.000000,0.000000,
137855911,0.193140,18.900784,1,-0.388123,0.002747,-0.004761,-0.921570,-0.070000,0.090000,0.500000,-0.016165,-0.107494,0.501181,0.121713,0.498144,0.501840,0.000000,0.000000,
137868413,0.378900,18.900784,1,-0.388123,0.002747,-0.004761,-0.921631,-0.070000,0.030000,0.560000,0.026691,-0.064934,0.560779,0.211161,0.610411,0.560129,0.000000,0.000000,
137876985,0.099497,18.896143,1,-0.388123,0.002747,-0.004761,-0.921631,-0.110000,0.030000,0.600000,0.054590,-0.093113,0.601126,0.180257,0.565566,0.600675,0.000000,0.000000,
137885868,-0.086248,18.896143,1,-0.388123,0.002747,-0.004761,-0.921631,-0.090000,0.030000,0.540000,0.040695,-0.079459,0.540955,0.099343,0.458093,0.541613,0.000000,0.000000,
137898442,-0.271490,18.905426,1,-0.388123,0.002747,-0.004761,-0.921631,-0.070000,-0.010000,0.520000,0.055363,-0.037417,0.520515,-0.014764,0.313360,0.520748,0.000000,0.000000,
137907295,-0.458777,18.896143,1,-0.388123,0.002747,-0.004761,-0.921631,-0.130000,-0.060000,0.540000,0.133039,-0.045181,0.540707,-0.155801,0.119172,0.540487,0.000000,0.000000,
137916172,0.099497,18.896143,1,-0.388184,0.002747,-0.004761,-0.921570,-0.070000,0.010000,0.540000,0.041011,-0.051178,0.540647,-0.072326,0.232591,0.540645,0.000000,0.000000,
137928749,0.099497,18.896143,1,-0.388184,0.002747,-0.004761,-0.921570,-0.090000,0.010000,0.580000,0.054929,-0.065050,0.580820,-0.013771,0.310479,0.580377,0.000000,0.000000,
137937322,-0.271490,18.905426,1,-0.388184,0.002747,-0.004761,-0.921570,-0.110000,0.050000,0.560000,0.040309,-0.107521,0.561262,-0.094569,0.199248,0.561472,0.000000,0.000000,
137946333,0.193140,18.900784,1,-0.388184,0.002747,-0.004761,-0.921570,-0.110000,0.010000,0.540000,0.068956,-0.079796,0.540997,0.000086,0.325910,0.541223,0.000000,0.000000,
137958945,0.656244,18.886859,1,-0.388123,0.002747,-0.004761,-0.921631,-0.090000,0.090000,0.560000,-0.002258,-0.121171,0.561352,0.216525,0.602868,0.561130,0.000000,0.000000,
137967783,0.657785,18.896143,1,-0.388123,0.002747,-0.004761,-0.921631,-0.110000,0.030000,0.560000,0.054645,-0.093549,0.561129,0.364879,0.806952,0.561129,0.000000,0.000000,
137976669,0.750925,18.900784,1,-0.388123,0.002747,-0.004761,-0.921631,-0.070000,0.070000,0.540000,-0.001899,-0.093105,0.541045,0.496702,0.976837,0.541267,0.000000,0.000000,
137989035,0.099497,18.896143,1,-0.388123,0.002747,-0.004761,-0.921631,-0.110000,0.030000,0.560000,0.054645,-0.093549,0.561129,0.380333,0.819885,0.560910,0.000000,0.000000,
137997614,0.285761,18.896143,1,-0.388123,0.002747,-0.004761,-0.921631,-0.070000,0.050000,0.560000,0.012382,-0.078910,0.560911,0.356762,0.782233,0.560911,0.000000,0.000000,
138006477,0.564646,18.900784,1,-0.388123,0.002747,-0.004761,-0.921631,-0.090000,0.050000,0.540000,0.026387,-0.093436,0.541088,0.430773,0.874921,0.541306,0.000000,0.000000,
138019155,-0.178869,18.900784,1,-0.388123,0.002747,-0.004761,-0.921631,-0.090000,0.030000,0.560000,0.040668,-0.079241,0.560954,0.244738,0.632534,0.560737,0.000000,0.000000,
138028016,0.285761,18.896143,1,-0.388123,0.002747,-0.004761,-0.921631,-0.090000,-0.010000,0.540000,0.069313,-0.051507,0.540689,0.263658,0.655832,0.540910,0.000000,0.000000,
138036881,-0.737631,18.900784,1,-0.388123,0.002747,-0.004761,-0.921631,-0.090000,0.050000,0.540000,0.026387,-0.093436,0.541088,-0.053761,0.231949,0.541086,0.000000,0.000000,
138049348,0.286280,18.905426,1,-0.388123,0.002747,-0.004761,-0.921631,-0.130000,0.010000,0.540000,0.082958,-0.094098,0.541172,0.059186,0.379113,0.541171,0.000000,0.000000,
138057923,0.006876,18.900784,1,-0.388123,0.002747,-0.004761,-0.921631,-0.110000,0.010000,0.540000,0.068981,-0.079791,0.540997,0.045513,0.360164,0.540999,0.000000,0.000000,
138066801,-0.178869,18.900784,1,-0.388123,0.002747,-0.004761,-0.921631,-0.090000,0.030000,0.560000,0.040668,-0.079241,0.560954,-0.023661,0.269947,0.560734,0.000000,0.000000,
138079428,-0.178351,18.910068,1,-0.388123,0.002747,-0.004761,-0.921631,-0.090000,0.010000,0.540000,0.055004,-0.065483,0.540822,-0.070245,0.213250,0.541041,0.000000,0.000000,
138088291,-0.086248,18.896143,1,-0.388123,0.002747,-0.004761,-0.921631,-0.090000,0.030000,0.560000,0.040668,-0.079241,0.560954,-0.073519,0.210993,0.560734,0.000000,0.000000,
138097169,0.285761,18.896143,1,-0.388123,0.002747,-0.004761,-0.921631,-0.090000,0.050000,0.540000,0.026387,-0.093436,0.541088,0.044372,0.369843,0.541304,0.000000,0.000000,
138109664,0.471521,18.896143,1,-0.388000,0.002747,-0.004761,-0.921631,-0.110000,0.050000,0.580000,0.040319,-0.107283,0.581260,0.187252,0.553841,0.580820,0.000000,0.000000,
138118474,0.472025,18.905426,1,-0.388000,0.002747,-0.004761,-0.921631,-0.130000,0.050000,0.560000,0.054324,-0.121804,0.561437,0.284438,0.687545,0.561650,0.000000,0.000000,
138127285,0.285761,18.896143,1,-0.388000,0.002747,-0.004761,-0.921631,-0.090000,0.030000,0.540000,0.040701,-0.079439,0.540955,0.290944,0.692878,0.541183,0.000000,0.000000,
138139928,0.193140,18.900784,1,-0.388000,0.002747,-0.004761,-0.921631,-0.090000,0.030000,0.520000,0.040729,-0.079658,0.520956,0.268100,0.659102,0.521179,0.000000,0.000000,
138148763,0.286280,18.905426,1,-0.388000,0.002747,-0.004761,-0.921631,-0.110000,0.030000,0.540000,0.054678,-0.093743,0.541130,0.279837,0.672129,0.540910,0.000000,0.000000,
138157453,0.285761,18.896143,1,-0.388000,0.002747,-0.004761,-0.921631,-0.110000,0.070000,0.520000,0.026097,-0.121914,0.521397,0.287610,0.679205,0.521612,0.000000,0.000000,
138411757,0.193140,18.900784,1,-0.387817,0.002747,-0.004761,-0.921753,-0.070000,0.050000,0.560000,0.012435,-0.078900,0.560911,0.438489,0.782819,0.560478,0.000000,0.000000,
138420609,-0.096029,18.784737,1,-0.387817,0.002747,-0.004761,-0.921753,-0.070000,0.050000,0.560000,0.012435,-0.078900,0.560911,0.082160,-0.208178,0.560907,0.000000,0.000000,
138429463,-0.002905,18.789379,1,-0.387817,0.002747,-0.004761,-0.921753,-0.090000,0.070000,0.540000,0.012149,-0.107402,0.541221,0.040808,-0.293868,0.541438,0.000000,0.000000,
138441740,-0.280752,18.794021,1,-0.387817,0.002747,-0.004761,-0.921753,-0.090000,0.030000,0.540000,0.040748,-0.079431,0.540955,-0.087827,-0.513840,0.540960,0.000000,0.000000,
138450306,-0.093969,18.803304,1,-0.387817,0.002747,-0.004761,-0.921753,-0.070000,0.030000,0.560000,0.026734,-0.064915,0.560778,-0.094383,-0.512232,0.560560,0.000000,0.000000,
138459137,-0.000845,18.807946,1,-0.387817,0.002747,-0.004761,-0.921753,-0.110000,0.030000,0.560000,0.054707,-0.093511,0.561129,-0.067465,-0.470694,0.561122,0.000000,0.000000,
138471613,-0.000326,18.817230,1,-0.387817,0.002747,-0.004761,-0.921753,-0.140000,-0.010000,0.540000,0.104312,-0.087206,0.541127,-0.051296,-0.443104,0.541347,0.000000,0.000000,
138480463,-0.092428,18.821872,1,-0.387817,0.002747,-0.004761,-0.921753,-0.140000,0.010000,0.540000,0.090012,-0.101191,0.541260,-0.068479,-0.449717,0.541261,0.000000,0.000000,
138492305,0.000696,18.826514,1,-0.387878,0.002747,-0.004761,-0.921692,-0.090000,-0.010000,0.580000,0.069273,-0.051032,0.580687,-0.051616,-0.426411,0.580252,0.000000,0.000000,
138501246,-0.462881,18.840440,1,-0.387939,0.002747,-0.004761,-0.921692,-0.130000,0.030000,0.540000,0.068686,-0.108044,0.541305,-0.186407,-0.515586,0.541734,0.000000,0.000000,
138510068,-0.277151,18.840440,1,-0.387939,0.002747,-0.004761,-0.921692,-0.070000,0.030000,0.560000,0.026714,-0.064920,0.560778,-0.219696,-0.529505,0.560569,0.000000,0.000000,
138522095,0.466883,18.840440,1,-0.387939,0.002747,-0.004761,-0.921692,-0.090000,0.030000,0.560000,0.040696,-0.079222,0.560954,-0.008628,-0.389158,0.560949,0.000000,0.000000,
138530730,-0.089346,18.859008,1,-0.387939,0.002747,-0.004761,-0.921692,-0.130000,0.050000,0.560000,0.054356,-0.121807,0.561437,-0.037510,-0.400944,0.561431,0.000000,0.000000,
138539496,0.933084,18.854366,1,-0.387878,0.002747,-0.004761,-0.921692,-0.070000,0.090000,0.540000,-0.016157,-0.107073,0.541178,0.265449,-0.207025,0.541402,0.000000,0.000000,
138552114,0.003275,18.854366,1,-0.387756,0.002747,-0.004761,-0.921753,-0.050000,0.130000,0.520000,-0.058679,-0.120974,0.521270,0.180013,-0.250125,0.521492,0.000000,0.000000,
138560998,0.003275,18.854366,1,-0.387695,0.002747,-0.004761,-0.921753,-0.050000,0.090000,0.560000,-0.030130,-0.092562,0.561002,0.121890,-0.282597,0.560567,0.000000,0.000000,
138569833,0.189539,18.863649,1,-0.387573,0.002747,-0.004761,-0.921814,-0.050000,0.130000,0.560000,-0.058686,-0.120553,0.561268,0.140786,-0.263807,0.561260,0.000000,0.000000,
138582179,0.003275,18.854366,1,-0.387573,0.002747,-0.004761,-0.921814,-0.050000,0.070000,0.580000,-0.015840,-0.078365,0.580868,0.094077,-0.284195,0.580652,0.000000,0.000000,
138590759,-0.274572,18.868291,1,-0.387695,0.002747,-0.004761,-0.921753,-0.110000,-0.010000,0.540000,0.083330,-0.065734,0.540864,-0.025062,-0.361797,0.541302,0.000000,0.000000,
138599636,0.189539,18.863649,1,-0.387817,0.002747,-0.004761,-0.921692,-0.160000,0.010000,0.540000,0.103963,-0.115480,0.541435,0.039586,-0.311102,0.541433,0.000000,0.000000,
138612346,-0.181448,18.872933,1,-0.387939,0.002747,-0.004761,-0.921692,-0.140000,-0.050000,0.560000,0.132861,-0.059053,0.560860,-0.034321,-0.350600,0.560646,0.000000,0.000000,
138621179,0.096918,18.868291,1,-0.387939,0.002747,-0.004761,-0.921692,-0.110000,0.030000,0.560000,0.054677,-0.093524,0.561129,0.004229,-0.314383,0.561123,0.000000,0.000000,
138630056,0.005854,18.882217,1,-0.387817,0.002747,-0.004761,-0.921692,-0.090000,0.030000,0.540000,0.040729,-0.079420,0.540955,0.001974,-0.309208,0.541177,0.000000,0.000000,
138642497,0.097956,18.877575,1,-0.387695,0.002747,-0.004761,-0.921753,-0.050000,0.110000,0.540000,-0.044398,-0.106765,0.541136,0.028609,-0.280846,0.541137,0.000000,0.000000,
138651094,0.376322,18.872933,1,-0.387512,0.002747,-0.004761,-0.921875,-0.050000,0.110000,0.520000,-0.044322,-0.107021,0.521138,0.136615,-0.189062,0.521358,0.000000,0.000000,
138659973,0.562586,18.872933,1,-0.387390,0.002747,-0.004761,-0.921936,0.030000,0.130000,0.540000,-0.114604,-0.063676,0.540569,0.269957,-0.081996,0.540358,0.000000,0.000000,
138672617,0.191080,18.882217,1,-0.387390,0.002747,-0.004761,-0.921936,-0.070000,0.050000,0.560000,0.012512,-0.078889,0.560911,0.243920,-0.093523,0.560685,0.000000,0.000000,
138681474,0.005854,18.882217,1,-0.387512,0.002747,-0.004761,-0.921814,-0.110000,-0.060000,0.540000,0.119073,-0.030725,0.540531,0.167402,-0.151784,0.540753,0.000000,0.000000,
138690342,0.469965,18.877575,1,-0.387756,0.002747,-0.004761,-0.921753,-0.110000,-0.050000,0.560000,0.111898,-0.037557,0.560597,0.262120,-0.069704,0.560378,0.000000,0.000000,
138702821,0.191599,18.891501,1,-0.387939,0.002747,-0.004761,-0.921692,-0.050000,0.010000,0.520000,0.027090,-0.037074,0.520473,0.238867,-0.080791,0.520913,0.000000,0.000000,
138711624,0.377344,18.882217,1,-0.387939,0.002747,-0.004761,-0.921692,-0.010000,0.050000,0.540000,-0.029506,-0.036214,0.540387,0.282268,-0.037658,0.540173,0.000000,0.000000,
138720459,0.656244,18.886859,1,-0.387817,0.002747,-0.004761,-0.921753,-0.050000,0.030000,0.520000,0.012803,-0.051052,0.520606,0.400787,0.066402,0.520821,0.000000,0.000000,
138733138,-0.179907,18.891501,1,-0.387573,0.002747,-0.004761,-0.921814,-0.010000,0.050000,0.560000,-0.029502,-0.036013,0.560386,0.216806,-0.077341,0.559950,0.000000,0.000000,
138741975,0.191599,18.891501,1,-0.387451,0.002747,-0.004761,-0.921875,-0.140000,-0.010000,0.540000,0.104367,-0.087121,0.541126,0.208106,-0.079878,0.541334,0.000000,0.000000,
138750688,0.377863,18.891501,1,-0.387451,0.002747,-0.004761,-0.921875,-0.140000,-0.010000,0.520000,0.104394,-0.087339,0.521128,0.261433,-0.028103,0.521350,0.000000,0.000000,
138763140,0.191599,18.891501,1,-0.387573,0.002747,-0.004761,-0.921814,-0.180000,-0.060000,0.560000,0.168020,-0.080535,0.561143,0.238875,-0.039974,0.560704,0.000000,0.000000,
138771717,0.191599,18.891501,1,-0.387817,0.002747,-0.004761,-0.921692,-0.140000,-0.010000,0.560000,0.104253,-0.086984,0.561125,0.223470,-0.049316,0.561121,0.000000,0.000000,
138780648,-0.178869,18.900784,1,-0.388000,0.002747,-0.004761,-0.921631,-0.070000,-0.030000,0.540000,0.069637,-0.023207,0.540381,0.094981,-0.159126,0.540610,0.000000,0.000000,
138793247,0.191599,18.891501,1,-0.388000,0.002747,-0.004761,-0.921631,-0.050000,0.110000,0.540000,-0.044470,-0.106739,0.541136,0.123839,-0.125312,0.541130,0.000000,0.000000,
138802134,0.191599,18.891501,1,-0.387817,0.002747,-0.004761,-0.921753,-0.090000,0.090000,0.520000,-0.002123,-0.121606,0.521355,0.144397,-0.099599,0.521573,0.000000,0.000000,
138810927,0.191599,18.891501,1,-0.387573,0.002747,-0.004761,-0.921814,-0.070000,0.090000,0.540000,-0.016086,-0.107082,0.541178,0.158588,-0.080753,0.540962,0.000000,0.000000,
138823493,0.006876,18.900784,1,-0.387390,0.002747,-0.004761,-0.921936,-0.050000,0.090000,0.560000,-0.030061,-0.092601,0.561002,0.109167,-0.117693,0.560781,0.000000,0.000000,
138832070,0.191599,18.891501,1,-0.387268,0.002747,-0.004761,-0.921936,-0.090000,0.050000,0.560000,0.026522,-0.093154,0.561086,0.134538,-0.086368,0.561083,0.000000,0.000000,
138841086,0.006876,18.900784,1,-0.387268,0.002747,-0.004761,-0.921936,-0.110000,0.010000,0.580000,0.069058,-0.079219,0.580994,0.093060,-0.120083,0.580775,0.000000,0.000000,
138853725,0.006876,18.900784,1,-0.387390,0.002747,-0.004761,-0.921936,-0.130000,-0.030000,0.540000,0.111684,-0.065968,0.540906,0.064032,-0.139033,0.541345,0.000000,0.000000,
138862579,0.006876,18.900784,1,-0.387573,0.002747,-0.004761,-0.921814,-0.130000,-0.050000,0.520000,0.125953,-0.052241,0.520774,0.044519,-0.153407,0.521001,0.000000,0.000000,
138871245,0.471521,18.896143,1,-0.387756,0.002747,-0.004761,-0.921753,-0.110000,-0.050000,0.580000,0.111871,-0.037339,0.580596,0.179565,-0.012865,0.579939,0.000000,0.000000,
138883709,0.099497,18.896143,1,-0.387878,0.002747,-0.004761,-0.921692,-0.110000,0.070000,0.520000,0.026134,-0.121910,0.521397,0.153834,-0.030892,0.522042,0.000000,0.000000,
138892359,-0.086248,18.896143,1,-0.387878,0.002747,-0.004761,-0.921692,-0.050000,0.050000,0.560000,-0.001565,-0.064594,0.560736,0.076688,-0.107302,0.560310,0.000000,0.000000,
138901409,0.193140,18.900784,1,-0.387756,0.002747,-0.004761,-0.921753,-0.070000,0.010000,0.540000,0.041062,-0.051140,0.540647,0.112947,-0.064930,0.540863,0.000000,0.000000,
138913983,-0.271490,18.905426,1,-0.387573,0.002747,-0.004761,-0.921814,-0.110000,0.070000,0.560000,0.026159,-0.121454,0.561394,-0.010939,-0.179198,0.561168,0.000000,0.000000,
138922822,0.471521,18.896143,1,-0.387512,0.002747,-0.004761,-0.921875,-0.110000,0.010000,0.580000,0.069031,-0.079261,0.580994,0.142250,-0.005707,0.580776,0.000000,0.000000,
138931573,0.285761,18.896143,1,-0.387512,0.002747,-0.004761,-0.921875,-0.140000,-0.010000,0.540000,0.104368,-0.087136,0.541126,0.188120,0.046815,0.541563,0.000000,0.000000,
138944019,0.100016,18.905426,1,-0.387634,0.002747,-0.004761,-0.921814,-0.160000,0.030000,0.540000,0.089743,-0.129436,0.541568,0.160515,0.025179,0.541567,0.000000,0.000000,
138952692,-0.737631,18.900784,1,-0.387756,0.002747,-0.004761,-0.921753,-0.110000,0.030000,0.560000,0.054710,-0.093499,0.561129,-0.127409,-0.288665,0.560913,0.000000,0.000000,
138961733,-0.178869,18.900784,1,-0.387756,0.002747,-0.004761,-0.921753,-0.070000,0.050000,0.520000,0.012495,-0.079329,0.520914,-0.146464,-0.301308,0.521355,0.000000,0.000000,
138974281,0.193140,18.900784,1,-0.387756,0.002747,-0.004761,-0.921753,-0.050000,0.070000,0.540000,-0.015815,-0.078800,0.540870,-0.041281,-0.182438,0.540655,0.000000,0.000000,
138983112,-0.271490,18.905426,1,-0.387634,0.002747,-0.004761,-0.921814,-0.050000,0.050000,0.540000,-0.001499,-0.064817,0.540737,-0.116822,-0.261465,0.540737,0.000000,0.000000,
138994960,-0.085745,18.905426,1,-0.387512,0.002747,-0.004761,-0.921875,-0.090000,0.050000,0.540000,0.026510,-0.093397,0.541088,-0.109896,-0.244272,0.541084,0.000000,0.000000,
139003609,0.006876,18.900784,1,-0.387451,0.002747,-0.004761,-0.921875,-0.090000,0.070000,0.560000,0.012201,-0.107164,0.561219,-0.074461,-0.196303,0.560998,0.000000,0.000000,
139012191,0.100016,18.905426,1,-0.387451,0.002747,-0.004761,-0.921875,-0.160000,-0.030000,0.540000,0.132650,-0.087413,0.541168,-0.020249,-0.130677,0.541387,0.000000,0.000000,
139024668,-0.271490,18.905426,1,-0.387512,0.002747,-0.004761,-0.921814,-0.140000,-0.010000,0.540000,0.104336,-0.087132,0.541126,-0.102445,-0.208388,0.541129,0.000000,0.000000,
139033547,-0.085745,18.905426,1,-0.387634,0.002747,-0.004761,-0.921814,-0.160000,-0.030000,0.560000,0.132596,-0.087248,0.561167,-0.098906,-0.197202,0.560947,0.000000,0.000000,
139042385,0.193140,18.900784,1,-0.387695,0.002747,-0.004761,-0.921753,-0.090000,0.030000,0.560000,0.040727,-0.079193,0.560953,-0.007023,-0.088488,0.560953,0.000000,0.000000,
139054868,0.193659,18.910068,1,-0.387695,0.002747,-0.004761,-0.921753,-0.090000,0.030000,0.560000,0.040727,-0.079193,0.560953,0.056370,-0.012329,0.560953,0.000000,0.000000,
139063464,0.564646,18.900784,1,-0.387634,0.002747,-0.004761,-0.921814,-0.050000,0.010000,0.540000,0.027088,-0.036837,0.540472,0.219747,0.185161,0.540697,0.000000,0.000000,
139072315,0.285761,18.896143,1,-0.387573,0.002747,-0.004761,-0.921814,-0.110000,0.030000,0.540000,0.054769,-0.093692,0.541130,0.242571,0.213651,0.541125,0.000000,0.000000,
139084873,-0.271490,18.905426,1,-0.387573,0.002747,-0.004761,-0.921814,-0.130000,0.010000,0.520000,0.083079,-0.094211,0.521173,0.080117,0.040868,0.521393,0.000000,0.000000,
139093756,-0.271490,18.905426,1,-0.387573,0.002747,-0.004761,-0.921814,-0.110000,0.070000,0.560000,0.026159,-0.121454,0.561394,-0.032681,-0.089610,0.560954,0.000000,0.000000,
139102595,0.472025,18.905426,1,-0.387573,0.002747,-0.004761,-0.921814,-0.090000,0.090000,0.520000,-0.002068,-0.121590,0.521355,0.128520,0.100593,0.521791,0.000000,0.000000,
139115039,-0.085745,18.905426,1,-0.387573,0.002747,-0.004761,-0.921814,-0.110000,0.050000,0.500000,0.040533,-0.108118,0.501265,0.060910,0.030554,0.501491,0.000000,0.000000,
139123625,0.100016,18.905426,1,-0.387573,0.002747,-0.004761,-0.921814,-0.010000,0.110000,0.580000,-0.072404,-0.077764,0.580784,0.073785,0.050823,0.579910,0.000000,0.000000,
139132629,-0.085745,18.905426,1,-0.387512,0.002747,-0.004761,-0.921875,-0.030000,0.090000,0.560000,-0.044082,-0.078301,0.560827,0.023062,-0.003036,0.561037,0.000000,0.000000,
139145263,0.286280,18.905426,1,-0.387451,0.002747,-0.004761,-0.921875,-0.030000,0.030000,0.560000,-0.001209,-0.036314,0.560428,0.107765,0.098891,0.560435,0.000000,0.000000,
139154122,0.658304,18.905426,1,-0.387451,0.002747,-0.004761,-0.921875,-0.110000,0.010000,0.480000,0.069169,-0.080339,0.481000,0.286122,0.322091,0.481876,0.000000,0.000000,
139162991,-0.085745,18.905426,1,-0.387573,0.002747,-0.004761,-0.921814,-0.140000,-0.010000,0.540000,0.104338,-0.087148,0.541126,0.169521,0.186174,0.540474,0.000000,0.000000,
139175315,0.285761,18.896143,1,-0.387756,0.002747,-0.004761,-0.921753,-0.110000,-0.030000,0.560000,0.097601,-0.051543,0.560730,0.209274,0.235637,0.560507,0.000000,0.000000,
139183931,0.007395,18.910068,1,-0.387878,0.002747,-0.004761,-0.921692,-0.130000,-0.060000,0.520000,0.133070,-0.045334,0.520708,0.146269,0.159468,0.521147,0.000000,0.000000,
139192848,-0.085745,18.905426,1,-0.388000,0.002747,-0.004761,-0.921631,-0.140000,-0.030000,0.580000,0.118502,-0.072832,0.580992,0.073191,0.076970,0.580332,0.000000,0.000000,
139205511,-0.085745,18.905426,1,-0.388000,0.002747,-0.004761,-0.921631,-0.130000,0.010000,0.560000,0.082932,-0.093851,0.561171,0.023032,0.025664,0.561382,0.000000,0.000000,
139214391,0.286280,18.905426,1,-0.388000,0.002747,-0.004761,-0.921631,-0.130000,-0.010000,0.560000,0.097237,-0.079875,0.561038,0.108210,0.137565,0.561042,0.000000,0.000000,
139223246,0.006876,18.900784,1,-0.388000,0.002747,-0.004761,-0.921631,-0.090000,0.010000,0.560000,0.054978,-0.065245,0.560821,0.076867,0.103354,0.560823,0.000000,0.000000,
139235593,-0.084707,18.914710,1,-0.388000,0.002747,-0.004761,-0.921631,-0.110000,0.030000,0.560000,0.054651,-0.093525,0.561129,0.026134,0.049910,0.561125,0.000000,0.000000,
139244193,0.007395,18.910068,1,-0.388000,0.002747,-0.004761,-0.921631,-0.110000,0.010000,0.600000,0.068901,-0.079112,0.600993,0.020542,0.047437,0.600554,0.000000,0.000000,
139253082,0.006876,18.900784,1,-0.388000,0.002747,-0.004761,-0.921631,-0.090000,0.050000,0.540000,0.026397,-0.093416,0.541088,0.016592,0.046981,0.541743,0.000000,0.000000,
139265803,0.101557,18.914710,1,-0.388000,0.002747,-0.004761,-0.921631,-0.070000,0.090000,0.560000,-0.016216,-0.106847,0.561177,0.044615,0.085917,0.560963,0.000000,0.000000,
139274652,0.286280,18.905426,1,-0.387878,0.002747,-0.004761,-0.921692,0.030000,0.090000,0.500000,-0.086010,-0.036011,0.500305,0.123422,0.190443,0.500974,0.000000,0.000000,
139283477,0.564646,18.900784,1,-0.387878,0.002747,-0.004761,-0.921692,-0.110000,0.070000,0.560000,0.026079,-0.121474,0.561395,0.267089,0.369059,0.560729,0.000000,0.000000,
139295942,-0.085745,18.905426,1,-0.387878,0.002747,-0.004761,-0.921692,-0.050000,0.010000,0.520000,0.027091,-0.037068,0.520473,0.157976,0.241516,0.520916,0.000000,0.000000,
139304742,0.378900,18.900784,1,-0.387878,0.002747,-0.004761,-0.921692,-0.050000,0.050000,0.500000,-0.001483,-0.065248,0.500740,0.231454,0.337835,0.500962,0.000000,0.000000,
139313581,-0.364615,18.910068,1,-0.387939,0.002747,-0.004761,-0.921631,-0.130000,0.070000,0.540000,0.040055,-0.135984,0.541571,0.042665,0.107139,0.541123,0.000000,0.000000,
139326198,0.379404,18.910068,1,-0.388062,0.002747,-0.004761,-0.921631,-0.070000,0.030000,0.540000,0.026721,-0.065144,0.540780,0.152660,0.242554,0.540784,0.000000,0.000000,
139335080,0.658304,18.905426,1,-0.388306,0.002747,-0.004761,-0.921509,-0.050000,0.010000,0.540000,0.027026,-0.036875,0.540472,0.318202,0.459934,0.540475,0.000000,0.000000,
139343779,-0.270971,18.914710,1,-0.388489,0.002747,-0.004761,-0.921448,-0.030000,0.050000,0.540000,-0.015589,-0.050495,0.540562,0.132568,0.229092,0.540561,0.000000,0.000000,
139364130,-0.178351,18.910068,1,-0.389099,0.002808,-0.004761,-0.921204,-0.110000,0.070000,0.540000,0.025724,-0.121745,0.541405,0.036126,0.120703,0.541395,0.000000,0.000000,
139373443,-0.365133,18.900784,1,-0.389465,0.002808,-0.004761,-0.921021,-0.110000,0.010000,0.520000,0.068691,-0.080181,0.521011,-0.094809,-0.082357,0.521235,0.000000,0.000000,
139383297,0.099497,18.896143,1,-0.389893,0.002808,-0.004761,-0.920837,-0.130000,-0.010000,0.580000,0.096806,-0.080030,0.581054,-0.032165,0.014587,0.580394,0.000000,0.000000,
139397180,-0.178869,18.900784,1,-0.390259,0.002808,-0.004761,-0.920654,-0.130000,0.010000,0.580000,0.082354,-0.094010,0.581185,-0.079835,-0.042454,0.581177,0.000000,0.000000,
139406089,-0.086248,18.896143,1,-0.390625,0.002808,-0.004761,-0.920532,-0.140000,0.010000,0.540000,0.089298,-0.101710,0.541277,-0.082285,-0.040688,0.541717,0.000000,0.000000,
139414947,0.193140,18.900784,1,-0.390808,0.002808,-0.004761,-0.920471,-0.130000,-0.030000,0.560000,0.111069,-0.066552,0.560924,0.006634,0.084416,0.560713,0.000000,0.000000,
139427067,0.285761,18.896143,1,-0.390930,0.002808,-0.004761,-0.920410,-0.070000,-0.030000,0.540000,0.069414,-0.023625,0.540392,0.098103,0.205163,0.540616,0.000000,0.000000,
139435918,0.193140,18.900784,1,-0.390930,0.002808,-0.004761,-0.920410,-0.110000,0.030000,0.560000,0.053979,-0.093849,0.561141,0.130711,0.251146,0.560915,0.000000,0.000000,
139444534,0.006876,18.900784,1,-0.390808,0.002808,-0.004761,-0.920471,-0.070000,0.010000,0.540000,0.040644,-0.051388,0.540655,0.092987,0.205501,0.540878,0.000000,0.000000,
139456886,0.378900,18.900784,1,-0.390686,0.002808,-0.004761,-0.920532,-0.090000,0.050000,0.540000,0.025785,-0.093554,0.541096,0.187821,0.322736,0.541093,0.000000,0.000000,
139465584,-0.084707,18.914710,1,-0.390564,0.002808,-0.004761,-0.920532,0.010000,0.030000,0.560000,-0.029333,-0.007517,0.560074,0.102621,0.213030,0.559865,0.000000,0.000000,
139474461,0.006876,18.900784,1,-0.390503,0.002808,-0.004761,-0.920593,-0.090000,0.090000,0.560000,-0.002971,-0.121120,0.561357,0.073718,0.179945,0.561341,0.000000,0.000000,
139487071,0.193659,18.910068,1,-0.390503,0.002808,-0.004761,-0.920593,-0.130000,0.090000,0.560000,0.024830,-0.149878,0.561713,0.114726,0.233196,0.561709,0.000000,0.000000,
139495904,-0.085745,18.905426,1,-0.390503,0.002808,-0.004761,-0.920593,-0.090000,0.070000,0.560000,0.011409,-0.107220,0.561226,0.052022,0.153243,0.561231,0.000000,0.000000,
139504598,0.286280,18.905426,1,-0.390503,0.002808,-0.004761,-0.920593,-0.070000,0.070000,0.560000,-0.002492,-0.092841,0.561048,0.128796,0.252316,0.561050,0.000000,0.000000,
139517113,0.007395,18.910068,1,-0.390564,0.002808,-0.004761,-0.920532,-0.050000,0.030000,0.500000,0.012443,-0.051316,0.500611,0.092829,0.211683,0.501277,0.000000,0.000000,
139525902,-0.178869,18.900784,1,-0.390564,0.002808,-0.004761,-0.920532,-0.090000,0.070000,0.540000,0.011414,-0.107429,0.541227,0.006917,0.101166,0.540787,0.000000,0.000000,
139534763,-0.550360,18.910068,1,-0.390564,0.002808,-0.004761,-0.920532,-0.090000,0.010000,0.500000,0.054616,-0.066181,0.500835,-0.171611,-0.118823,0.501275,0.000000,0.000000,
139547289,0.007395,18.910068,1,-0.390564,0.002808,-0.004761,-0.920532,-0.110000,-0.030000,0.560000,0.097189,-0.052113,0.560746,-0.115285,-0.042073,0.560091,0.000000,0.000000,
139556109,0.100016,18.905426,1,-0.390625,0.002808,-0.004761,-0.920532,-0.130000,0.010000,0.560000,0.082321,-0.094299,0.561187,-0.046036,0.054911,0.561175,0.000000,0.000000,
139564907,0.007395,18.910068,1,-0.390686,0.002808,-0.004761,-0.920532,-0.090000,0.030000,0.580000,0.040113,-0.079220,0.580962,-0.028321,0.081708,0.580744,0.000000,0.000000,
139577439,0.006876,18.900784,1,-0.390747,0.002808,-0.004761,-0.920471,-0.130000,0.030000,0.560000,0.067903,-0.108211,0.561318,-0.015892,0.102521,0.561533,0.000000,0.000000,
139586271,-0.178351,18.910068,1,-0.390747,0.002808,-0.004761,-0.920471,-0.130000,-0.010000,0.580000,0.096649,-0.080210,0.581054,-0.067492,0.037853,0.580839,0.000000,0.000000,
139595139,0.286280,18.905426,1,-0.390747,0.002808,-0.004761,-0.920471,-0.050000,0.050000,0.540000,-0.002022,-0.064776,0.540740,0.046848,0.187008,0.541182,0.000000,0.000000,
139607628,-0.363073,18.919352,1,-0.390747,0.002808,-0.004761,-0.920471,-0.070000,0.050000,0.500000,0.011928,-0.079600,0.500920,-0.083139,0.031606,0.501364,0.000000,0.000000,
139616234,0.379404,18.910068,1,-0.390747,0.002808,-0.004761,-0.920471,-0.090000,0.010000,0.520000,0.054565,-0.065986,0.520834,0.066697,0.235820,0.520619,0.000000,0.000000,
139625114,0.473062,18.914710,1,-0.390747,0.002808,-0.004761,-0.920471,-0.030000,0.090000,0.520000,-0.044659,-0.078391,0.520826,0.199706,0.405892,0.520824,0.000000,0.000000,
139637651,0.007395,18.910068,1,-0.390747,0.002808,-0.004761,-0.920471,-0.030000,0.070000,0.540000,-0.030300,-0.064280,0.540694,0.142744,0.336813,0.540475,0.000000,0.000000,
139646514,0.286280,18.905426,1,-0.390747,0.002808,-0.004761,-0.920471,-0.030000,0.070000,0.520000,-0.030272,-0.064500,0.520695,0.192176,0.403611,0.520913,0.000000,0.000000,
139658382,0.100016,18.905426,1,-0.390686,0.002808,-0.004761,-0.920532,-0.090000,0.050000,0.560000,0.025756,-0.093335,0.561094,0.167187,0.372309,0.560652,0.000000,0.000000,
