Code compiled on Feb 14 2026 at 22:01:21
﻿Simulation Mode (T/F),F
Airbrakes Enabled (T/F),T
Log File Name,FLT
Sim File Name (if applicable),Sim
Burnout Mass (kg),0.6
Air Density (kg/m^3),1.24
Rocket CD,0.65
Airbrake CD,0.65
Rocket Area (m^2),0.00243
Kalman Model Y STD,0.05
Kalman Model V STD,0.1
Kalman Model A STD,0.015
Kalman Measurement Y STD,0.26
Kalman Measurement A STD,0.013
Target Apogee (m),228.6
Launch Acceleration Threshold (m/s^2),40
Coast Lockout (s),1.5
KP (1/s),0.24
Altimeter Lockout (s),60
Control Max Velocity (dep/s),2

Calibration point: 238.512741
Time (us),Altitude AGL (m),Temperature (deg C),Mode,IMU Quat W,IMU Quat X,IMU Quat Y,IMU Quat Z,IMU Local Acceleration X,IMU Local Acceleration Y,IMU Local Acceleration Z,IMU Global Acceleration x,IMU Global Acceleration y,IMU Global Acceleration z,State Estimation y,State Estimation v,State Estimation a,Commanded servo deployment,Real servo deployment,
104363996,0.089661,17.373433,1,0.881836,-0.027161,0.022217,-0.470276,0.140000,0.370000,0.700000,0.429684,0.108414,0.670912,0.000000,0.000000,0.000000,0.000000,0.000000,
104377586,-0.095047,17.373433,1,0.881836,-0.027161,0.022217,-0.470276,0.160000,0.430000,0.700000,0.490510,0.125174,0.666511,-0.040350,0.008957,0.659085,0.000000,0.000000,
104385918,0.366974,17.387362,1,0.881836,-0.027161,0.022217,-0.470215,0.160000,0.390000,0.710000,0.458003,0.103260,0.679239,0.178971,0.018400,0.679017,0.000000,0.000000,
104393454,-0.189194,17.396648,1,0.881836,-0.027161,0.022217,-0.470215,0.120000,0.390000,0.710000,0.435731,0.136480,0.679784,-0.027469,0.018038,0.679776,0.000000,0.000000,
104405130,-0.189713,17.405934,1,0.881897,-0.027161,0.022217,-0.470093,0.180000,0.410000,0.700000,0.485028,0.097634,0.667614,-0.118991,0.022426,0.667748,0.000000,0.000000,
104413062,-0.003983,17.405934,1,0.881958,-0.027161,0.022217,-0.469971,0.100000,0.410000,0.680000,0.439126,0.163638,0.648755,-0.053614,0.032063,0.648964,0.000000,0.000000,
104421661,0.088120,17.419862,1,0.882080,-0.027161,0.022217,-0.469849,0.100000,0.450000,0.700000,0.473508,0.186572,0.665952,0.027039,0.043790,0.665765,0.000000,0.000000,
104433585,-0.283859,17.429148,1,0.882141,-0.027161,0.022217,-0.469727,0.120000,0.450000,0.710000,0.485259,0.170369,0.675654,-0.148751,0.035870,0.675545,0.000000,0.000000,
104442202,0.272308,17.429148,1,0.882141,-0.027161,0.022217,-0.469666,0.140000,0.390000,0.730000,0.448028,0.120938,0.699459,0.090561,0.073752,0.699196,0.000000,0.000000,
104451029,0.087082,17.438434,1,0.882141,-0.027161,0.022217,-0.469666,0.160000,0.430000,0.700000,0.490340,0.125824,0.666508,0.089264,0.079368,0.666868,0.000000,0.000000,
104463538,-0.099167,17.447720,1,0.882080,-0.027161,0.022217,-0.469788,0.180000,0.390000,0.700000,0.468423,0.086810,0.668987,-0.016709,0.071905,0.668963,0.000000,0.000000,
104472380,-0.099167,17.447720,1,0.881958,-0.027161,0.022217,-0.469971,0.220000,0.390000,0.700000,0.490737,0.053420,0.668442,-0.062908,0.068242,0.668448,0.000000,0.000000,
104481007,0.086060,17.457006,1,0.881897,-0.027161,0.022217,-0.470154,0.220000,0.370000,0.680000,0.472914,0.041550,0.649869,0.022335,0.090561,0.650073,0.000000,0.000000,
104493610,-0.564255,17.470934,1,0.881836,-0.027161,0.022217,-0.470276,0.160000,0.370000,0.700000,0.440817,0.091802,0.670639,-0.309975,0.031896,0.670412,0.000000,0.000000,
104502168,0.363892,17.461648,1,0.881836,-0.027161,0.022217,-0.470276,0.130000,0.310000,0.700000,0.374424,0.083348,0.675176,0.073693,0.141087,0.675123,0.000000,0.000000,
104511165,0.363373,17.470934,1,0.881897,-0.027161,0.022217,-0.470154,0.100000,0.410000,0.680000,0.439205,0.163463,0.648754,0.239711,0.188151,0.649045,0.000000,0.000000,
104523793,-0.193314,17.480220,1,0.881897,-0.027161,0.022217,-0.470093,0.160000,0.350000,0.660000,0.421622,0.079768,0.632113,-0.004343,0.132491,0.632300,0.000000,0.000000,
104532665,0.455475,17.475577,1,0.881958,-0.027161,0.022217,-0.470032,0.140000,0.370000,0.700000,0.429626,0.108640,0.670910,0.258782,0.226272,0.670485,0.000000,0.000000,
104541325,0.085022,17.475577,1,0.881958,-0.027161,0.022217,-0.469971,0.140000,0.410000,0.700000,0.462711,0.130971,0.668159,0.161865,0.201204,0.668185,0.000000,0.000000,
104553923,-0.100708,17.484863,1,0.881958,-0.027161,0.022217,-0.469971,0.180000,0.370000,0.700000,0.451890,0.075492,0.670365,0.014855,0.163751,0.670341,0.000000,0.000000,
104562545,0.363373,17.480220,1,0.881958,-0.027161,0.022217,-0.469971,0.120000,0.430000,0.750000,0.471357,0.160062,0.716934,0.215004,0.248522,0.716420,0.000000,0.000000,
104571483,-0.008102,17.489506,1,0.881958,-0.027161,0.022217,-0.469971,0.160000,0.460000,0.710000,0.515892,0.142476,0.674422,0.090157,0.208750,0.674885,0.000000,0.000000,
104584105,-0.379562,17.498791,1,0.881958,-0.027161,0.022217,-0.469971,0.160000,0.410000,0.700000,0.473856,0.114367,0.667886,-0.175067,0.120478,0.667963,0.000000,0.000000,
104592944,0.084518,17.494148,1,0.882019,-0.027161,0.022217,-0.469910,0.100000,0.410000,0.660000,0.437822,0.163154,0.628803,-0.025795,0.193911,0.629235,0.000000,0.000000,
104601641,-0.008606,17.498791,1,0.882080,-0.027161,0.022217,-0.469788,0.100000,0.390000,0.700000,0.423814,0.153209,0.670081,-0.014282,0.203847,0.669631,0.000000,0.000000,
104614121,-0.008606,17.498791,1,0.882141,-0.027161,0.022217,-0.469666,0.120000,0.370000,0.700000,0.418381,0.125576,0.671183,-0.008446,0.213542,0.671165,0.000000,0.000000,
104622708,0.176605,17.498791,1,0.882202,-0.027161,0.022217,-0.469543,0.160000,0.390000,0.710000,0.457863,0.103922,0.679234,0.099129,0.273500,0.679145,0.000000,0.000000,
104631806,-0.193832,17.498791,1,0.882202,-0.027161,0.022217,-0.469543,0.140000,0.430000,0.710000,0.479792,0.142818,0.676757,-0.065533,0.202469,0.676783,0.000000,0.000000,
104644426,0.269745,17.494148,1,0.882202,-0.027161,0.022217,-0.469543,0.160000,0.450000,0.660000,0.504263,0.136024,0.625230,0.128694,0.298985,0.625798,0.000000,0.000000,
104653261,0.269745,17.494148,1,0.882202,-0.027161,0.022217,-0.469604,0.180000,0.450000,0.750000,0.521278,0.121792,0.714734,0.212049,0.351773,0.713754,0.000000,0.000000,
104661960,-0.101227,17.503434,1,0.882141,-0.027161,0.022217,-0.469666,0.240000,0.430000,0.710000,0.535614,0.059708,0.675389,0.036209,0.264314,0.675811,0.000000,0.000000,
104674457,0.454971,17.503434,1,0.882080,-0.027161,0.022217,-0.469727,0.140000,0.330000,0.700000,0.396443,0.086636,0.673661,0.279060,0.392859,0.673685,0.000000,0.000000,
104683288,0.362350,17.498791,1,0.882080,-0.027161,0.022217,-0.469727,0.100000,0.370000,0.660000,0.404644,0.141039,0.631556,0.330236,0.428194,0.632020,0.000000,0.000000,
104692172,0.732803,17.508077,1,0.882080,-0.027161,0.022217,-0.469727,0.080000,0.430000,0.660000,0.443137,0.191071,0.627702,0.564178,0.564204,0.627749,0.000000,0.000000,
104704669,-0.101227,17.503434,1,0.882080,-0.027161,0.022217,-0.469727,0.120000,0.330000,0.700000,0.385288,0.103234,0.673935,0.190343,0.362665,0.673426,0.000000,0.000000,
104713473,0.084000,17.503434,1,0.882141,-0.027161,0.022217,-0.469666,0.160000,0.410000,0.730000,0.475733,0.115489,0.697810,0.132625,0.327428,0.697541,0.000000,0.000000,
104722273,0.547577,17.498791,1,0.882141,-0.027161,0.022217,-0.469666,0.130000,0.370000,0.680000,0.422666,0.116737,0.651095,0.372893,0.478708,0.651607,0.000000,0.000000,
104734656,0.084000,17.512720,1,0.882141,-0.027161,0.022217,-0.469666,0.160000,0.410000,0.700000,0.473792,0.114677,0.667884,0.213366,0.389085,0.667704,0.000000,0.000000,
104743446,0.361832,17.508077,1,0.882141,-0.027161,0.022217,-0.469666,0.160000,0.410000,0.710000,0.474439,0.114948,0.677859,0.301950,0.456732,0.677747,0.000000,0.000000,
104752436,0.176102,17.508077,1,0.882141,-0.027161,0.022217,-0.469666,0.130000,0.450000,0.700000,0.490153,0.161866,0.665543,0.234038,0.415535,0.665677,0.000000,0.000000,
104765133,0.269226,17.503434,1,0.882141,-0.027161,0.022217,-0.469666,0.140000,0.430000,0.710000,0.479830,0.142691,0.676757,0.259552,0.437023,0.676635,0.000000,0.000000,
104773741,0.176102,17.508077,1,0.882141,-0.027161,0.022217,-0.469666,0.060000,0.410000,0.680000,0.416713,0.197119,0.649301,0.215431,0.404859,0.649603,0.000000,0.000000,
104782507,-0.658401,17.512720,1,0.882141,-0.027161,0.022217,-0.469666,0.100000,0.370000,0.700000,0.407225,0.142173,0.671456,-0.281506,0.062171,0.671215,0.000000,0.000000,
104795034,0.732803,17.508077,1,0.882202,-0.027161,0.022217,-0.469604,0.080000,0.330000,0.680000,0.361669,0.135980,0.654530,0.301355,0.459909,0.654714,0.000000,0.000000,
104803861,0.268707,17.512720,1,0.882202,-0.027161,0.022217,-0.469604,0.060000,0.370000,0.680000,0.383605,0.174875,0.652052,0.286684,0.450210,0.652082,0.000000,0.000000,
104812752,-0.009125,17.517363,1,0.882202,-0.027161,0.022217,-0.469604,0.140000,0.370000,0.710000,0.430182,0.109304,0.680883,0.121134,0.330517,0.680566,0.000000,0.000000,
104825406,-0.194336,17.517363,1,0.882202,-0.027161,0.022217,-0.469604,0.140000,0.410000,0.700000,0.462630,0.131332,0.668156,-0.055840,0.209554,0.668293,0.000000,0.000000,
104833977,-0.101730,17.512720,1,0.882141,-0.027161,0.022217,-0.469666,0.180000,0.370000,0.700000,0.451852,0.075786,0.670362,-0.080404,0.192159,0.670339,0.000000,0.000000,
104842914,-0.380066,17.517363,1,0.882080,-0.027161,0.022217,-0.469727,0.180000,0.430000,0.700000,0.501498,0.109165,0.666236,-0.250533,0.065339,0.666281,0.000000,0.000000,
104855466,-0.009125,17.517363,1,0.882080,-0.027161,0.022217,-0.469788,0.180000,0.410000,0.680000,0.483681,0.097411,0.647660,-0.110908,0.177412,0.647865,0.000000,0.000000,
104864344,0.268707,17.512720,1,0.882080,-0.027161,0.022217,-0.469788,0.160000,0.370000,0.730000,0.442661,0.093078,0.700562,0.109144,0.383348,0.699981,0.000000,0.000000,
104873186,-0.101730,17.522006,1,0.882080,-0.027161,0.022217,-0.469788,0.100000,0.350000,0.640000,0.386829,0.129301,0.612980,-0.008490,0.289364,0.613939,0.000000,0.000000,
104885667,0.268707,17.522006,1,0.882080,-0.027161,0.022217,-0.469788,0.120000,0.390000,0.700000,0.434967,0.136609,0.669807,0.154600,0.422708,0.669191,0.000000,0.000000,
104894261,0.083481,17.522006,1,0.882080,-0.027161,0.022217,-0.469788,0.100000,0.330000,0.660000,0.371571,0.118699,0.634307,0.117316,0.389206,0.634691,0.000000,0.000000,
104903234,0.084000,17.512720,1,0.882080,-0.027161,0.022217,-0.469788,0.180000,0.350000,0.680000,0.434026,0.063984,0.651788,0.101704,0.378963,0.651599,0.000000,0.000000,
104915836,0.268707,17.512720,1,0.882080,-0.027161,0.022217,-0.469788,0.130000,0.370000,0.700000,0.423991,0.117166,0.671046,0.202654,0.465899,0.670832,0.000000,0.000000,
104924696,-0.101730,17.522006,1,0.882080,-0.027161,0.022217,-0.469788,0.160000,0.370000,0.700000,0.440720,0.092267,0.670636,0.031399,0.297284,0.670638,0.000000,0.000000,
104933556,-0.101730,17.512720,1,0.882080,-0.027161,0.022217,-0.469788,0.220000,0.410000,0.730000,0.509221,0.065564,0.696990,-0.042448,0.235382,0.696700,0.000000,0.000000,
104945900,0.361832,17.517363,1,0.882080,-0.027161,0.022217,-0.469788,0.140000,0.430000,0.700000,0.479222,0.142294,0.666782,0.193296,0.441069,0.667112,0.000000,0.000000,
104954469,-0.286957,17.512720,1,0.882080,-0.027161,0.022217,-0.469727,0.130000,0.460000,0.700000,0.498436,0.167376,0.664856,-0.079659,0.164863,0.664881,0.000000,0.000000,
104963348,0.176102,17.517363,1,0.882141,-0.027161,0.022217,-0.469666,0.130000,0.430000,0.730000,0.475546,0.151531,0.696845,0.068822,0.303438,0.696492,0.000000,0.000000,
104976030,0.268707,17.522006,1,0.882202,-0.027161,0.022217,-0.469543,0.040000,0.410000,0.700000,0.406792,0.214363,0.669526,0.187896,0.412072,0.669823,0.000000,0.000000,
104984885,-0.009125,17.517363,1,0.882263,-0.027161,0.022217,-0.469421,0.100000,0.390000,0.710000,0.424337,0.153813,0.680056,0.077889,0.296833,0.679943,0.000000,0.000000,
104993776,-0.101730,17.522006,1,0.882324,-0.027161,0.022217,-0.469360,0.130000,0.410000,0.700000,0.456975,0.139871,0.668292,-0.022781,0.204477,0.668421,0.000000,0.000000,
105006217,0.361832,17.517363,1,0.882324,-0.027161,0.022217,-0.469360,0.160000,0.390000,0.680000,0.455892,0.103287,0.649306,0.201555,0.413546,0.649517,0.000000,0.000000,
105014835,-0.472687,17.522006,1,0.882263,-0.027161,0.022217,-0.469482,0.120000,0.450000,0.730000,0.486460,0.171167,0.695605,-0.183927,-0.004447,0.695097,0.000000,0.000000,
105023692,-0.009125,17.526648,1,0.882202,-0.027161,0.022217,-0.469604,0.220000,0.410000,0.730000,0.509208,0.065761,0.696987,-0.083373,0.098486,0.696966,0.000000,0.000000,
105036457,-0.102249,17.531291,1,0.882141,-0.027161,0.022217,-0.469727,0.180000,0.430000,0.680000,0.500231,0.108616,0.646283,-0.092952,0.096689,0.646841,0.000000,0.000000,
105045316,-0.565277,17.517363,1,0.882080,-0.027161,0.022217,-0.469788,0.120000,0.370000,0.710000,0.419062,0.125737,0.681158,-0.364943,-0.206580,0.680780,0.000000,0.000000,
105054158,-0.380066,17.526648,1,0.882080,-0.027161,0.022217,-0.469788,0.130000,0.350000,0.680000,0.406146,0.105483,0.652471,-0.375452,-0.209584,0.652783,0.000000,0.000000,
105066521,0.361328,17.526648,1,0.882080,-0.027161,0.022217,-0.469788,0.130000,0.350000,0.710000,0.408087,0.106294,0.682397,0.047155,0.204586,0.682071,0.000000,0.000000,
105075041,-0.287460,17.522006,1,0.882141,-0.027161,0.022217,-0.469727,0.140000,0.370000,0.660000,0.426976,0.107838,0.631007,-0.144315,-0.010763,0.631570,0.000000,0.000000,
105084044,0.175583,17.526648,1,0.882141,-0.027161,0.022217,-0.469666,0.140000,0.370000,0.710000,0.430185,0.109250,0.680884,0.039800,0.180258,0.680341,0.000000,0.000000,
105096668,0.175583,17.526648,1,0.882202,-0.027161,0.022217,-0.469604,0.200000,0.410000,0.700000,0.496107,0.081545,0.667335,0.120530,0.265082,0.667478,0.000000,0.000000,
105105542,-0.287460,17.522006,1,0.882202,-0.027161,0.022217,-0.469604,0.130000,0.410000,0.710000,0.457697,0.139900,0.678269,-0.112994,-0.007791,0.678150,0.000000,0.000000,
105114397,0.268707,17.522006,1,0.882202,-0.027161,0.022217,-0.469604,0.160000,0.430000,0.700000,0.490336,0.125886,0.666507,0.106924,0.229805,0.666635,0.000000,0.000000,
105126877,0.268707,17.512720,1,0.882141,-0.027161,0.022217,-0.469666,0.140000,0.410000,0.660000,0.460047,0.130192,0.628256,0.203288,0.330912,0.628679,0.000000,0.000000,
105135672,-0.473190,17.531291,1,0.882141,-0.027161,0.022217,-0.469666,0.140000,0.430000,0.680000,0.477889,0.141880,0.646831,-0.184976,-0.132542,0.646631,0.000000,0.000000,
105144536,-0.194855,17.526648,1,0.882141,-0.027161,0.022217,-0.469666,0.140000,0.350000,0.730000,0.414931,0.098644,0.702211,-0.191817,-0.132391,0.701598,0.000000,0.000000,
105157046,0.267685,17.531291,1,0.882141,-0.027161,0.022217,-0.469666,0.140000,0.480000,0.710000,0.521201,0.170559,0.673318,0.072081,0.145477,0.673629,0.000000,0.000000,
105165890,-0.473190,17.531291,1,0.882202,-0.027161,0.022217,-0.469604,0.100000,0.350000,0.700000,0.390670,0.131075,0.672831,-0.242081,-0.234274,0.672840,0.000000,0.000000,
105174667,0.176102,17.517363,1,0.882202,-0.027161,0.022217,-0.469604,0.100000,0.350000,0.810000,0.397788,0.134051,0.782560,-0.003006,0.035358,0.781351,0.000000,0.000000,
105187145,-0.473190,17.531291,1,0.882202,-0.027161,0.022217,-0.469604,0.120000,0.390000,0.730000,0.436865,0.137590,0.699732,-0.274245,-0.235580,0.700631,0.000000,0.000000,
105195742,-0.194855,17.526648,1,0.882202,-0.027161,0.022217,-0.469604,0.140000,0.430000,0.710000,0.479824,0.142752,0.676756,-0.230314,-0.172775,0.677019,0.000000,0.000000,
105204723,0.083481,17.522006,1,0.882202,-0.027161,0.022217,-0.469604,0.180000,0.330000,0.640000,0.414876,0.051920,0.613260,-0.050902,0.030217,0.613962,0.000000,0.000000,
105217376,-0.473190,17.531291,1,0.882202,-0.027161,0.022217,-0.469604,0.140000,0.410000,0.680000,0.461336,0.130791,0.648206,-0.294688,-0.218486,0.647828,0.000000,0.000000,
105226244,0.083481,17.522006,1,0.882202,-0.027161,0.022217,-0.469604,0.200000,0.430000,0.700000,0.512655,0.092695,0.665959,-0.077581,0.066331,0.665759,0.000000,0.000000,
105234986,-0.102249,17.531291,1,0.882202,-0.027161,0.022217,-0.469604,0.120000,0.450000,0.710000,0.485212,0.170497,0.675654,-0.091208,0.056136,0.675545,0.000000,0.000000,
105247562,-0.287460,17.531291,1,0.882202,-0.027161,0.022217,-0.469604,0.140000,0.480000,0.730000,0.522487,0.171166,0.693267,-0.203954,-0.055705,0.693072,0.000000,0.000000,
105256152,-0.009125,17.526648,1,0.882202,-0.027161,0.022217,-0.469543,0.100000,0.390000,0.710000,0.424379,0.153702,0.680056,-0.091596,0.095104,0.680199,0.000000,0.000000,
105265146,-0.473190,17.531291,1,0.882263,-0.027161,0.022217,-0.469482,0.140000,0.370000,0.680000,0.428212,0.108605,0.650957,-0.310883,-0.147028,0.651279,0.000000,0.000000,
105285649,-0.102249,17.531291,1,0.882263,-0.027161,0.022217,-0.469482,0.160000,0.450000,0.750000,0.510082,0.138523,0.715007,-0.191981,-0.001469,0.714305,0.000000,0.000000,
105295101,-0.194336,17.517363,1,0.882263,-0.027161,0.022217,-0.469482,0.060000,0.370000,0.710000,0.385498,0.175787,0.681979,-0.193351,0.002504,0.682335,0.000000,0.000000,
105304607,0.083481,17.522006,1,0.882263,-0.027161,0.022217,-0.469482,0.100000,0.410000,0.680000,0.438973,0.164098,0.648753,-0.032325,0.232439,0.649123,0.000000,0.000000,
105318838,-0.380066,17.526648,1,0.882263,-0.027161,0.022217,-0.469482,0.130000,0.410000,0.660000,0.454424,0.138668,0.628391,-0.231407,-0.005713,0.628620,0.000000,0.000000,
105327375,0.176102,17.517363,1,0.882202,-0.027161,0.022217,-0.469543,0.140000,0.350000,0.730000,0.414905,0.098753,0.702210,0.005630,0.345459,0.701399,0.000000,0.000000,
105336169,0.176102,17.517363,1,0.882202,-0.027161,0.022217,-0.469543,0.160000,0.370000,0.680000,0.439376,0.091958,0.650684,0.107198,0.468948,0.651243,0.000000,0.000000,
105348391,-0.380066,17.517363,1,0.882202,-0.027161,0.022217,-0.469604,0.160000,0.370000,0.680000,0.439400,0.091897,0.650683,-0.168997,0.166785,0.650689,0.000000,0.000000,
105357267,-0.009125,17.526648,1,0.882202,-0.027161,0.022217,-0.469604,0.080000,0.350000,0.710000,0.380158,0.147941,0.683080,-0.074891,0.292040,0.682723,0.000000,0.000000,
105366158,-0.009125,17.526648,1,0.882202,-0.027161,0.022217,-0.469604,0.120000,0.350000,0.710000,0.402476,0.114750,0.682533,-0.034306,0.341857,0.682535,0.000000,0.000000,
105378444,-0.194336,17.517363,1,0.882202,-0.027161,0.022217,-0.469604,0.130000,0.370000,0.710000,0.424603,0.117602,0.681020,-0.122648,0.248801,0.681037,0.000000,0.000000,
105387268,0.175583,17.526648,1,0.882202,-0.027161,0.022217,-0.469604,0.180000,0.370000,0.700000,0.451854,0.075842,0.670360,0.052331,0.479266,0.670478,0.000000,0.000000,
105395883,-0.101730,17.522006,1,0.882202,-0.027161,0.022217,-0.469604,0.140000,0.410000,0.730000,0.464571,0.132144,0.698082,-0.032422,0.381958,0.697778,0.000000,0.000000,
105408411,-0.194855,17.526648,1,0.882202,-0.027161,0.022217,-0.469482,0.120000,0.410000,0.700000,0.451405,0.148051,0.668432,-0.121566,0.288061,0.668755,0.000000,0.000000,
105417156,-0.287460,17.531291,1,0.882263,-0.027161,0.022217,-0.469421,0.180000,0.430000,0.730000,0.503379,0.110306,0.696159,-0.215153,0.166993,0.695857,0.000000,0.000000,
105426044,-0.101730,17.522006,1,0.882324,-0.027161,0.022217,-0.469299,0.080000,0.430000,0.700000,0.445556,0.192563,0.667603,-0.148155,0.249756,0.667914,0.000000,0.000000,
105438560,-0.194855,17.526648,1,0.882385,-0.027161,0.022217,-0.469177,0.100000,0.410000,0.680000,0.438849,0.164389,0.648754,-0.172017,0.227655,0.648965,0.000000,0.000000,
105447413,0.175583,17.526648,1,0.882507,-0.027161,0.022217,-0.469055,0.060000,0.330000,0.730000,0.353570,0.154340,0.704681,0.031568,0.504565,0.704067,0.000000,0.000000,
105456162,-0.194855,17.526648,1,0.882507,-0.027161,0.022217,-0.468994,0.080000,0.350000,0.730000,0.381253,0.148979,0.703031,-0.094759,0.354402,0.703042,0.000000,0.000000,
105468547,-0.010147,17.535934,1,0.882568,-0.027161,0.022217,-0.468933,0.160000,0.390000,0.660000,0.454514,0.103164,0.629352,-0.041335,0.417249,0.630164,0.000000,0.000000,
105477338,-0.844131,17.531291,1,0.882568,-0.027161,0.022217,-0.468933,0.140000,0.430000,0.710000,0.479625,0.143447,0.676753,-0.503043,-0.202865,0.676239,0.000000,0.000000,
105486324,0.083481,17.531291,1,0.882568,-0.027161,0.022217,-0.468933,0.140000,0.430000,0.730000,0.480918,0.143989,0.696704,-0.166010,0.209190,0.696478,0.000000,0.000000,
105498965,0.639679,17.522006,1,0.882568,-0.027161,0.022217,-0.468933,0.130000,0.390000,0.660000,0.437737,0.128032,0.629764,0.303533,0.752246,0.630500,0.000000,0.000000,
105507598,-0.009125,17.526648,1,0.882568,-0.027161,0.022217,-0.468933,0.130000,0.410000,0.660000,0.454268,0.139206,0.628389,0.128689,0.507493,0.628412,0.000000,0.000000,
105516399,-0.380066,17.526648,1,0.882568,-0.027161,0.022278,-0.468872,0.130000,0.350000,0.730000,0.409256,0.107594,0.702306,-0.160695,0.159066,0.701491,0.000000,0.000000,
105529047,-0.010147,17.535934,1,0.882629,-0.027161,0.022278,-0.468811,0.140000,0.370000,0.700000,0.429431,0.109725,0.670864,-0.071410,0.267189,0.671201,0.000000,0.000000,
105537885,-0.009125,17.526648,1,0.882629,-0.027161,0.022278,-0.468689,0.140000,0.410000,0.700000,0.462424,0.132211,0.668111,-0.032881,0.323151,0.668146,0.000000,0.000000,
105546755,0.454453,17.522006,1,0.882690,-0.027161,0.022278,-0.468628,0.100000,0.390000,0.680000,0.422210,0.153682,0.650091,0.251664,0.674730,0.650290,0.000000,0.000000,
105559211,0.083481,17.531291,1,0.882690,-0.027161,0.022278,-0.468628,0.130000,0.370000,0.700000,0.423777,0.118182,0.671002,0.162663,0.569958,0.670774,0.000000,0.000000,
105567777,-0.009125,17.526648,1,0.882690,-0.027161,0.022278,-0.468628,0.180000,0.450000,0.730000,0.519798,0.122312,0.694728,0.067932,0.437765,0.694464,0.000000,0.000000,
105576689,0.547058,17.526648,1,0.882690,-0.027161,0.022278,-0.468628,0.180000,0.450000,0.730000,0.519798,0.122312,0.694728,0.348672,0.779999,0.694725,0.000000,0.000000,
105589283,-0.381104,17.535934,1,0.882690,-0.027161,0.022278,-0.468628,0.200000,0.430000,0.680000,0.511232,0.093203,0.645951,-0.064398,0.296517,0.646488,0.000000,0.000000,
105598118,0.083481,17.531291,1,0.882690,-0.027161,0.022278,-0.468628,0.130000,0.450000,0.730000,0.491809,0.163738,0.695422,0.024082,0.423029,0.694883,0.000000,0.000000,
105606988,0.175583,17.526648,1,0.882690,-0.027161,0.022278,-0.468628,0.080000,0.410000,0.700000,0.428832,0.181980,0.668943,0.115442,0.537885,0.669229,0.000000,0.000000,
105619590,0.267685,17.531291,1,0.882690,-0.027161,0.022278,-0.468628,0.120000,0.370000,0.660000,0.415588,0.125385,0.631240,0.210533,0.649621,0.631658,0.000000,0.000000,
105628186,-0.102249,17.531291,1,0.882690,-0.027161,0.022278,-0.468628,0.130000,0.410000,0.680000,0.455525,0.140013,0.648298,0.034613,0.398477,0.648115,0.000000,0.000000,
105637129,-0.009125,17.526648,1,0.882690,-0.027161,0.022278,-0.468689,0.220000,0.350000,0.710000,0.458299,0.032635,0.681105,0.012923,0.373334,0.680742,0.000000,0.000000,
105649679,0.267685,17.531291,1,0.882629,-0.027161,0.022278,-0.468750,0.220000,0.370000,0.710000,0.474817,0.043761,0.679730,0.165364,0.556348,0.679742,0.000000,0.000000,
105658564,0.083481,17.522006,1,0.882568,-0.027161,0.022278,-0.468872,0.260000,0.410000,0.730000,0.531553,0.033376,0.696375,0.122792,0.495144,0.696192,0.000000,0.000000,
105667444,-0.009125,17.526648,1,0.882507,-0.027161,0.022217,-0.468994,0.180000,0.370000,0.710000,0.452400,0.076710,0.680331,0.050930,0.405004,0.680506,0.000000,0.000000,
105679814,0.267685,17.531291,1,0.882446,-0.027161,0.022217,-0.469055,0.200000,0.370000,0.730000,0.464872,0.060615,0.700009,0.181661,0.563336,0.699794,0.000000,0.000000,
105688387,0.083481,17.522006,1,0.882446,-0.027161,0.022217,-0.469055,0.130000,0.370000,0.710000,0.424450,0.118106,0.681019,0.129545,0.488608,0.681226,0.000000,0.000000,
105697289,-0.009125,17.526648,1,0.882507,-0.027161,0.022217,-0.468994,0.140000,0.350000,0.730000,0.414799,0.099239,0.702207,0.053774,0.395428,0.701976,0.000000,0.000000,
105709905,0.083481,17.531291,1,0.882568,-0.027161,0.022217,-0.468872,0.120000,0.410000,0.680000,0.449937,0.148100,0.648478,0.076040,0.424063,0.649067,0.000000,0.000000,
105718748,0.083481,17.531291,1,0.882629,-0.027161,0.022278,-0.468811,0.100000,0.390000,0.710000,0.424228,0.154326,0.680017,0.084138,0.436275,0.679676,0.000000,0.000000,
105727631,-0.102249,17.531291,1,0.882629,-0.027161,0.022278,-0.468689,0.100000,0.390000,0.710000,0.424162,0.154440,0.680018,-0.019762,0.305266,0.680014,0.000000,0.000000,
105740058,-0.102249,17.531291,1,0.882629,-0.027161,0.022278,-0.468689,0.160000,0.430000,0.700000,0.490140,0.126823,0.666458,-0.063754,0.256054,0.666607,0.000000,0.000000,
105748664,-0.010147,17.535934,1,0.882690,-0.027161,0.022278,-0.468689,0.130000,0.460000,0.710000,0.498811,0.168721,0.674782,-0.030407,0.306394,0.674692,0.000000,0.000000,
105757641,0.547058,17.526648,1,0.882690,-0.027161,0.022278,-0.468689,0.180000,0.430000,0.710000,0.502008,0.110514,0.676154,0.306262,0.731751,0.676138,0.000000,0.000000,
105770279,0.267685,17.531291,1,0.882690,-0.027161,0.022278,-0.468689,0.140000,0.370000,0.700000,0.429401,0.109838,0.670863,0.293185,0.713270,0.670921,0.000000,0.000000,
105779143,0.083481,17.531291,1,0.882690,-0.027161,0.022278,-0.468628,0.100000,0.390000,0.730000,0.425449,0.155036,0.699968,0.177701,0.542769,0.699648,0.000000,0.000000,
105788010,0.083481,17.531291,1,0.882690,-0.027161,0.022278,-0.468628,0.120000,0.410000,0.700000,0.451223,0.148839,0.668388,0.128032,0.478651,0.668732,0.000000,0.000000,
105800524,0.082458,17.540577,1,0.882690,-0.027161,0.022278,-0.468628,0.120000,0.390000,0.680000,0.433406,0.137112,0.649814,0.107635,0.454756,0.650022,0.000000,0.000000,
105809308,-0.195892,17.545220,1,0.882690,-0.027161,0.022278,-0.468628,0.130000,0.430000,0.680000,0.472047,0.151199,0.646922,-0.064646,0.205218,0.646956,0.000000,0.000000,
105818089,-0.010147,17.535934,1,0.882690,-0.027161,0.022278,-0.468628,0.180000,0.430000,0.680000,0.500037,0.109773,0.646228,-0.031299,0.251252,0.646236,0.000000,0.000000,
105830726,0.267685,17.540577,1,0.882629,-0.027161,0.022278,-0.468750,0.140000,0.430000,0.710000,0.479628,0.143599,0.676710,0.145365,0.468863,0.676374,0.000000,0.000000,
105839566,0.175583,17.535934,1,0.882568,-0.027161,0.022278,-0.468872,0.120000,0.390000,0.700000,0.434775,0.137425,0.669765,0.167093,0.500362,0.669838,0.000000,0.000000,
105848372,0.083481,17.531291,1,0.882507,-0.027161,0.022217,-0.468994,0.130000,0.410000,0.700000,0.456861,0.140233,0.668291,0.123155,0.443828,0.668308,0.000000,0.000000,
105860724,0.267685,17.540577,1,0.882446,-0.027161,0.022217,-0.469055,0.140000,0.370000,0.680000,0.428099,0.109003,0.650956,0.212513,0.553618,0.651147,0.000000,0.000000,
105869531,-0.009125,17.526648,1,0.882446,-0.027161,0.022217,-0.469055,0.130000,0.370000,0.700000,0.423803,0.117835,0.671044,0.088701,0.373791,0.670824,0.000000,0.000000,
105878414,-0.194855,17.535934,1,0.882446,-0.027161,0.022217,-0.469055,0.140000,0.350000,0.710000,0.413507,0.098646,0.682257,-0.071976,0.169205,0.682131,0.000000,0.000000,
105891025,0.083481,17.531291,1,0.882507,-0.027161,0.022217,-0.468994,0.130000,0.370000,0.680000,0.422505,0.117346,0.651092,0.020412,0.287335,0.651434,0.000000,0.000000,
105899867,-0.566833,17.535934,1,0.882507,-0.027161,0.022217,-0.468994,0.130000,0.370000,0.680000,0.422505,0.117346,0.651092,-0.318276,-0.207233,0.651096,0.000000,0.000000,
105908571,0.082458,17.540577,1,0.882507,-0.027161,0.022217,-0.468994,0.080000,0.410000,0.680000,0.427613,0.181140,0.649028,-0.088227,0.099467,0.649050,0.000000,0.000000,
105921018,-0.102249,17.540577,1,0.882507,-0.027161,0.022217,-0.468994,0.160000,0.410000,0.680000,0.472341,0.114821,0.647929,-0.095072,0.097662,0.647941,0.000000,0.000000,
105929584,-0.194855,17.535934,1,0.882507,-0.027161,0.022217,-0.468994,0.140000,0.410000,0.680000,0.461159,0.131401,0.648203,-0.152153,0.018887,0.648200,0.000000,0.000000,
105938561,-0.102249,17.531291,1,0.882507,-0.027161,0.022217,-0.468994,0.100000,0.430000,0.700000,0.456620,0.176275,0.667328,-0.123094,0.061691,0.667117,0.000000,0.000000,
105951229,0.175583,17.535934,1,0.882507,-0.027161,0.022217,-0.468994,0.180000,0.410000,0.710000,0.485463,0.099055,0.677580,0.051082,0.282681,0.677465,0.000000,0.000000,
105960100,0.175583,17.535934,1,0.882507,-0.027161,0.022217,-0.468994,0.140000,0.410000,0.710000,0.463099,0.132214,0.678129,0.125986,0.395663,0.678122,0.000000,0.000000,
105968883,-0.473190,17.531291,1,0.882507,-0.027161,0.022217,-0.468994,0.100000,0.410000,0.710000,0.440735,0.165374,0.678679,-0.217248,-0.052278,0.678673,0.000000,0.000000,
105981288,-0.751526,17.535934,1,0.882507,-0.027161,0.022217,-0.468994,0.180000,0.410000,0.700000,0.484816,0.098784,0.667605,-0.527824,-0.424315,0.667727,0.000000,0.000000,
105989886,-0.287460,17.531291,1,0.882507,-0.027161,0.022217,-0.468994,0.200000,0.410000,0.660000,0.493411,0.081120,0.627428,-0.391851,-0.214795,0.627872,0.000000,0.000000,
105998840,-0.566833,17.545220,1,0.882507,-0.027161,0.022217,-0.468994,0.160000,0.370000,0.710000,0.441218,0.093290,0.680606,-0.494965,-0.338632,0.680025,0.000000,0.000000,
106011529,0.083481,17.522006,1,0.882507,-0.027161,0.022217,-0.468994,0.140000,0.410000,0.660000,0.459865,0.130859,0.628253,-0.163465,0.082340,0.628823,0.000000,0.000000,
106020388,0.083481,17.531291,1,0.882507,-0.027161,0.022217,-0.468994,0.160000,0.430000,0.730000,0.492107,0.127349,0.696430,-0.019145,0.301786,0.695685,0.000000,0.000000,
106029197,-0.381104,17.535934,1,0.882507,-0.027161,0.022217,-0.468994,0.130000,0.350000,0.710000,0.407914,0.106987,0.682394,-0.225945,0.032511,0.682540,0.000000,0.000000,
106041745,-0.287460,17.531291,1,0.882507,-0.027161,0.022217,-0.468994,0.180000,0.390000,0.700000,0.468285,0.087611,0.668980,-0.261186,-0.003127,0.669130,0.000000,0.000000,
106050444,-0.010147,17.535934,1,0.882507,-0.027161,0.022217,-0.468994,0.140000,0.370000,0.710000,0.430036,0.109870,0.680881,-0.115312,0.218475,0.680751,0.000000,0.000000,
106059383,0.453934,17.531291,1,0.882507,-0.027161,0.022217,-0.468994,0.140000,0.390000,0.700000,0.445921,0.120771,0.669530,0.216061,0.652752,0.669653,0.000000,0.000000,
106071955,-0.010147,17.535934,1,0.882507,-0.027161,0.022217,-0.468994,0.140000,0.410000,0.660000,0.459865,0.130859,0.628253,0.093013,0.498068,0.628709,0.000000,0.000000,
106080816,-0.010147,17.535934,1,0.882568,-0.027161,0.022217,-0.468933,0.130000,0.390000,0.680000,0.439031,0.128574,0.649715,0.037485,0.414868,0.649484,0.000000,0.000000,
106089511,-0.194855,17.535934,1,0.882568,-0.027161,0.022278,-0.468872,0.120000,0.390000,0.700000,0.434775,0.137425,0.669765,-0.093330,0.243807,0.669542,0.000000,0.000000,
106102005,-0.381104,17.545220,1,0.882629,-0.027161,0.022278,-0.468750,0.120000,0.430000,0.680000,0.466493,0.159361,0.647061,-0.257206,0.046880,0.647309,0.000000,0.000000,
106110619,-0.288498,17.540577,1,0.882690,-0.027161,0.022278,-0.468628,0.140000,0.410000,0.700000,0.462419,0.132269,0.668110,-0.274956,0.025813,0.667881,0.000000,0.000000,
106119669,0.360291,17.535934,1,0.882751,-0.027161,0.022278,-0.468567,0.130000,0.410000,0.700000,0.456815,0.140612,0.668248,0.092881,0.507773,0.668244,0.000000,0.000000,
106132304,0.083481,17.531291,1,0.882751,-0.027161,0.022278,-0.468567,0.180000,0.430000,0.710000,0.501979,0.110648,0.676153,0.093893,0.509514,0.676066,0.000000,0.000000,
106141109,-0.102249,17.540577,1,0.882751,-0.027161,0.022278,-0.468567,0.140000,0.450000,0.710000,0.496104,0.154975,0.675331,-0.015631,0.345050,0.675340,0.000000,0.000000,
106149826,-0.195892,17.545220,1,0.882690,-0.027161,0.022278,-0.468628,0.180000,0.390000,0.730000,0.470232,0.088754,0.698858,-0.116914,0.213642,0.698599,0.000000,0.000000,
106162314,-0.381104,17.535934,1,0.882629,-0.027161,0.022278,-0.468689,0.140000,0.350000,0.700000,0.412855,0.098660,0.672241,-0.267497,0.033113,0.672532,0.000000,0.000000,
106170970,0.083481,17.531291,1,0.882568,-0.027161,0.022278,-0.468811,0.120000,0.390000,0.680000,0.433449,0.136943,0.649815,-0.063261,0.340448,0.650065,0.000000,0.000000,
106179976,-0.659439,17.540577,1,0.882507,-0.027161,0.022217,-0.468933,0.130000,0.330000,0.700000,0.390712,0.095598,0.673794,-0.405164,-0.102446,0.673533,0.000000,0.000000,
106192577,-0.474228,17.540577,1,0.882446,-0.027161,0.022217,-0.469116,0.130000,0.350000,0.680000,0.406001,0.106067,0.652468,-0.446501,-0.144249,0.652700,0.000000,0.000000,
106201385,-0.010147,17.535934,1,0.882385,-0.027161,0.022217,-0.469177,0.200000,0.330000,0.700000,0.429876,0.037349,0.672835,-0.194056,0.240919,0.672613,0.000000,0.000000,
106210125,-0.194855,17.526648,1,0.882324,-0.027161,0.022217,-0.469299,0.140000,0.390000,0.730000,0.447931,0.121292,0.699458,-0.192386,0.246422,0.699162,0.000000,0.000000,
106222575,-0.194855,17.535934,1,0.882324,-0.027161,0.022217,-0.469299,0.160000,0.370000,0.710000,0.441268,0.093003,0.680608,-0.190698,0.253124,0.680813,0.000000,0.000000,
106231316,0.175583,17.535934,1,0.882324,-0.027161,0.022217,-0.469299,0.200000,0.390000,0.700000,0.479501,0.070718,0.668709,0.024384,0.574113,0.668842,0.000000,0.000000,
106240276,0.175583,17.535934,1,0.882385,-0.027161,0.022217,-0.469238,0.140000,0.430000,0.700000,0.479061,0.142862,0.666779,0.117061,0.694698,0.666802,0.000000,0.000000,
106260866,-0.195892,17.545220,1,0.882507,-0.027161,0.022217,-0.468933,0.160000,0.350000,0.680000,0.422725,0.081364,0.652056,-0.052014,0.481138,0.652218,0.000000,0.000000,
106270162,-0.194855,17.526648,1,0.882629,-0.027161,0.022278,-0.468750,0.130000,0.410000,0.710000,0.457507,0.140704,0.678225,-0.132071,0.315099,0.677938,0.000000,0.000000,
106279745,-0.102249,17.531291,1,0.882751,-0.027161,0.022278,-0.468567,0.180000,0.410000,0.700000,0.484810,0.099189,0.667554,-0.111618,0.348887,0.667669,0.000000,0.000000,
106292806,-0.380066,17.526648,1,0.882812,-0.027161,0.022278,-0.468384,0.130000,0.410000,0.700000,0.456745,0.140795,0.668248,-0.263639,0.140180,0.668242,0.000000,0.000000,
106301663,0.175583,17.526648,1,0.882874,-0.027161,0.022278,-0.468323,0.120000,0.450000,0.700000,0.484165,0.171529,0.665633,-0.006420,0.546263,0.665662,0.000000,0.000000,
106310530,-0.287460,17.531291,1,0.882874,-0.027100,0.022278,-0.468262,0.160000,0.450000,0.680000,0.505213,0.137862,0.645171,-0.164336,0.334410,0.645397,0.000000,0.000000,
106323046,-0.009125,17.526648,1,0.882874,-0.027100,0.022278,-0.468262,0.130000,0.410000,0.680000,0.455374,0.140303,0.648339,-0.070002,0.453932,0.648306,0.000000,0.000000,
106331921,-0.287460,17.531291,1,0.882874,-0.027100,0.022278,-0.468262,0.140000,0.390000,0.710000,0.446408,0.121633,0.679500,-0.192315,0.275162,0.679156,0.000000,0.000000,
106340793,-0.287460,17.531291,1,0.882874,-0.027100,0.022278,-0.468262,0.130000,0.410000,0.680000,0.455374,0.140303,0.648339,-0.244902,0.209560,0.648678,0.000000,0.000000,
106353353,0.083481,17.531291,1,0.882874,-0.027100,0.022278,-0.468262,0.130000,0.350000,0.700000,0.407131,0.107244,0.672412,-0.051670,0.450735,0.672151,0.000000,0.000000,
106361939,0.267685,17.531291,1,0.882874,-0.027161,0.022278,-0.468323,0.130000,0.390000,0.710000,0.440872,0.129926,0.679599,0.137718,0.727803,0.679517,0.000000,0.000000,
106370937,0.082458,17.540577,1,0.882812,-0.027161,0.022278,-0.468445,0.140000,0.350000,0.700000,0.412825,0.098871,0.672239,0.112330,0.693046,0.672319,0.000000,0.000000,
106383504,0.083481,17.531291,1,0.882751,-0.027161,0.022278,-0.468506,0.160000,0.370000,0.680000,0.439250,0.092901,0.650635,0.104350,0.680728,0.650874,0.000000,0.000000,
106392352,-0.194855,17.526648,1,0.882690,-0.027161,0.022278,-0.468628,0.200000,0.410000,0.680000,0.494710,0.082017,0.647327,-0.063471,0.431567,0.647367,0.000000,0.000000,
106401242,-0.010147,17.535934,1,0.882629,-0.027161,0.022278,-0.468750,0.160000,0.330000,0.680000,0.406249,0.070306,0.653389,-0.028753,0.477460,0.653323,0.000000,0.000000,
106413719,-0.010147,17.535934,1,0.882629,-0.027161,0.022278,-0.468811,0.140000,0.350000,0.680000,0.411607,0.098004,0.652290,-0.011948,0.498851,0.652301,0.000000,0.000000,
106422338,0.360291,17.535934,1,0.882629,-0.027161,0.022278,-0.468811,0.120000,0.370000,0.710000,0.418890,0.126571,0.681116,0.208591,0.821155,0.680799,0.000000,0.000000,
106431175,-0.381104,17.535934,1,0.882629,-0.027161,0.022278,-0.468811,0.120000,0.430000,0.700000,0.467824,0.159838,0.667011,-0.125189,0.389442,0.667163,0.000000,0.000000,
106443859,-0.288498,17.540577,1,0.882629,-0.027161,0.022278,-0.468689,0.100000,0.410000,0.660000,0.437446,0.164271,0.628765,-0.214960,0.281959,0.629188,0.000000,0.000000,
106452731,-0.194855,17.535934,1,0.882751,-0.027161,0.022278,-0.468567,0.130000,0.390000,0.680000,0.438998,0.128882,0.649674,-0.200747,0.304978,0.649448,0.000000,0.000000,
106461573,-0.287460,17.531291,1,0.882812,-0.027161,0.022278,-0.468445,0.160000,0.390000,0.680000,0.455767,0.104149,0.649257,-0.248208,0.245052,0.649259,0.000000,0.000000,
106473915,0.174561,17.545220,1,0.882874,-0.027161,0.022278,-0.468323,0.120000,0.430000,0.700000,0.467650,0.160332,0.667010,0.000159,0.555292,0.666814,0.000000,0.000000,
106482523,-0.381104,17.535934,1,0.882935,-0.027100,0.022278,-0.468201,0.160000,0.430000,0.710000,0.490638,0.127533,0.676471,-0.216452,0.237927,0.676364,0.000000,0.000000,
106491391,0.361328,17.526648,1,0.882935,-0.027100,0.022278,-0.468140,0.140000,0.390000,0.710000,0.446375,0.121750,0.679499,0.119858,0.672892,0.679465,0.000000,0.000000,
106501039,-0.194855,17.535934,1,0.882996,-0.027100,0.022278,-0.468079,0.120000,0.460000,0.730000,0.494228,0.178127,0.694918,-0.055574,0.456060,0.694748,0.000000,0.000000,
106513988,-0.195892,17.545220,1,0.883057,-0.027100,0.022278,-0.467957,0.140000,0.410000,0.700000,0.462197,0.132865,0.668148,-0.131149,0.362033,0.668441,0.000000,0.000000,
106522568,-0.102249,17.531291,1,0.883057,-0.027100,0.022278,-0.467896,0.100000,0.390000,0.680000,0.421923,0.154278,0.650131,-0.111210,0.393142,0.650333,0.000000,0.000000,
106534658,-0.288498,17.540577,1,0.883118,-0.027100,0.022278,-0.467834,0.140000,0.370000,0.710000,0.429804,0.110825,0.680871,-0.209439,0.267081,0.680535,0.000000,0.000000,
106543250,0.082458,17.540577,1,0.883179,-0.027100,0.022278,-0.467712,0.120000,0.410000,0.680000,0.449601,0.149116,0.648476,-0.037548,0.522603,0.648830,0.000000,0.000000,
106551938,0.082458,17.540577,1,0.883179,-0.027100,0.022278,-0.467651,0.140000,0.430000,0.680000,0.477297,0.143855,0.646823,0.036419,0.617782,0.646845,0.000000,0.000000,
106561515,-0.195892,17.554505,1,0.883179,-0.027100,0.022278,-0.467651,0.130000,0.370000,0.680000,0.422191,0.118459,0.651085,-0.091907,0.460216,0.651038,0.000000,0.000000,
106574316,-0.102249,17.540577,1,0.883179,-0.027100,0.022278,-0.467651,0.140000,0.410000,0.700000,0.462095,0.133173,0.668148,-0.091968,0.461243,0.667959,0.000000,0.000000,
106582899,-0.381104,17.535934,1,0.883179,-0.027100,0.022278,-0.467651,0.130000,0.430000,0.680000,0.471681,0.152127,0.646963,-0.256095,0.213218,0.647194,0.000000,0.000000,
106591905,-0.381104,17.535934,1,0.883179,-0.027100,0.022278,-0.467651,0.180000,0.450000,0.660000,0.514965,0.121447,0.624938,-0.326501,0.124331,0.625183,0.000000,0.000000,
106604648,-0.010147,17.545220,1,0.883179,-0.027100,0.022278,-0.467651,0.120000,0.460000,0.700000,0.492104,0.177775,0.664993,-0.141151,0.361978,0.664554,0.000000,0.000000,
106613538,0.082458,17.540577,1,0.883179,-0.027100,0.022278,-0.467651,0.100000,0.390000,0.680000,0.421840,0.154499,0.650131,-0.007857,0.563103,0.650290,0.000000,0.000000,
106622365,0.082458,17.540577,1,0.883240,-0.027100,0.022278,-0.467590,0.120000,0.410000,0.700000,0.450855,0.149775,0.668427,0.049425,0.638387,0.668227,0.000000,0.000000,
106634825,-0.102249,17.540577,1,0.883240,-0.027100,0.022278,-0.467590,0.100000,0.390000,0.680000,0.421831,0.154553,0.650130,-0.030608,0.536994,0.650330,0.000000,0.000000,
106643313,0.082458,17.540577,1,0.883240,-0.027100,0.022278,-0.467590,0.130000,0.410000,0.710000,0.457119,0.141773,0.678262,0.039656,0.640071,0.677954,0.000000,0.000000,
106652447,-0.381104,17.545220,1,0.883179,-0.027100,0.022278,-0.467651,0.160000,0.410000,0.730000,0.475268,0.117439,0.697794,-0.197924,0.332614,0.697575,0.000000,0.000000,
106665024,-0.474228,17.549863,1,0.883179,-0.027100,0.022278,-0.467773,0.160000,0.390000,0.710000,0.457529,0.105548,0.679216,-0.354121,0.140394,0.679418,0.000000,0.000000,
106673889,0.175583,17.535934,1,0.883118,-0.027100,0.022278,-0.467834,0.120000,0.370000,0.700000,0.417932,0.127106,0.671176,-0.044866,0.606428,0.671267,0.000000,0.000000,
106682616,-0.195892,17.545220,1,0.883057,-0.027100,0.022278,-0.467957,0.160000,0.390000,0.680000,0.455618,0.104560,0.649292,-0.126959,0.496411,0.649534,0.000000,0.000000,
106695117,-0.102249,17.540577,1,0.882996,-0.027100,0.022278,-0.468140,0.140000,0.330000,0.660000,0.393632,0.086781,0.633743,-0.106364,0.522064,0.633917,0.000000,0.000000,
106703747,-0.102249,17.540577,1,0.882935,-0.027100,0.022278,-0.468201,0.140000,0.370000,0.710000,0.429892,0.110487,0.680873,-0.099442,0.531489,0.680355,0.000000,0.000000,
106712771,-0.010147,17.535934,1,0.882874,-0.027161,0.022278,-0.468323,0.140000,0.370000,0.680000,0.428018,0.109635,0.650911,-0.042945,0.604651,0.651235,0.000000,0.000000,
106725374,0.360291,17.535934,1,0.882812,-0.027161,0.022278,-0.468384,0.120000,0.370000,0.710000,0.418759,0.126958,0.681116,0.198861,0.905953,0.680786,0.000000,0.000000,
106734215,-0.288498,17.549863,1,0.882812,-0.027161,0.022278,-0.468384,0.120000,0.350000,0.710000,0.402244,0.115763,0.682492,-0.076475,0.487665,0.682473,0.000000,0.000000,
106742933,-0.102249,17.540577,1,0.882812,-0.027161,0.022278,-0.468384,0.140000,0.370000,0.700000,0.429317,0.110123,0.670863,-0.087115,0.473753,0.670990,0.000000,0.000000,
106755477,-0.102249,17.540577,1,0.882874,-0.027161,0.022278,-0.468323,0.140000,0.390000,0.680000,0.444532,0.120832,0.649534,-0.089905,0.471031,0.649771,0.000000,0.000000,
106764241,0.175583,17.535934,1,0.882935,-0.027100,0.022278,-0.468201,0.140000,0.370000,0.700000,0.429245,0.110217,0.670897,0.068560,0.706666,0.670665,0.000000,0.000000,
106773093,-0.288498,17.540577,1,0.882996,-0.027100,0.022278,-0.468079,0.180000,0.410000,0.680000,0.483371,0.099090,0.647639,-0.131805,0.440491,0.647892,0.000000,0.000000,
106785729,-0.010147,17.545220,1,0.883057,-0.027100,0.022278,-0.467957,0.180000,0.390000,0.700000,0.468133,0.088547,0.668963,-0.055557,0.536834,0.668731,0.000000,0.000000,
106794584,-0.566833,17.535934,1,0.883118,-0.027100,0.022278,-0.467773,0.100000,0.430000,0.680000,0.454881,0.176825,0.647383,-0.348069,0.096906,0.647618,0.000000,0.000000,
106803253,-0.010147,17.545220,1,0.883240,-0.027100,0.022278,-0.467651,0.060000,0.410000,0.680000,0.415897,0.198811,0.649316,-0.151627,0.362193,0.649297,0.000000,0.000000,
106815669,-0.195892,17.545220,1,0.883301,-0.027100,0.022278,-0.467529,0.130000,0.390000,0.710000,0.440618,0.130604,0.679635,-0.172763,0.338869,0.679301,0.000000,0.000000,
106824212,-0.010147,17.535934,1,0.883362,-0.027100,0.022278,-0.467407,0.120000,0.430000,0.700000,0.467298,0.161183,0.667052,-0.075379,0.484505,0.667187,0.000000,0.000000,
106833315,-0.010147,17.545220,1,0.883362,-0.027100,0.022278,-0.467346,0.120000,0.410000,0.700000,0.450774,0.150012,0.668426,-0.033194,0.539554,0.668413,0.000000,0.000000,
106846006,-0.010147,17.535934,1,0.883423,-0.027100,0.022278,-0.467224,0.160000,0.390000,0.700000,0.456744,0.105824,0.669239,-0.012907,0.564867,0.669229,0.000000,0.000000,
106854791,0.360291,17.535934,1,0.883423,-0.027100,0.022278,-0.467224,0.120000,0.350000,0.710000,0.401922,0.116686,0.682523,0.209119,0.898612,0.682377,0.000000,0.000000,
106863552,-0.195892,17.545220,1,0.883423,-0.027100,0.022278,-0.467224,0.130000,0.390000,0.710000,0.440519,0.130896,0.679635,-0.017417,0.593194,0.679665,0.000000,0.000000,
106876046,-0.381104,17.545220,1,0.883423,-0.027100,0.022278,-0.467285,0.180000,0.410000,0.710000,0.485151,0.100730,0.677559,-0.221050,0.338922,0.677582,0.000000,0.000000,
106884575,-0.381104,17.535934,1,0.883362,-0.027100,0.022278,-0.467407,0.140000,0.430000,0.710000,0.479187,0.144913,0.676746,-0.311133,0.205955,0.676756,0.000000,0.000000,
106893618,0.267685,17.540577,1,0.883240,-0.027100,0.022278,-0.467590,0.120000,0.370000,0.700000,0.417864,0.127325,0.671175,0.025703,0.647973,0.671237,0.000000,0.000000,
106906247,-0.010666,17.554505,1,0.883118,-0.027100,0.022278,-0.467773,0.160000,0.410000,0.710000,0.474005,0.116773,0.677844,0.012821,0.630030,0.677771,0.000000,0.000000,
106915071,-0.381104,17.535934,1,0.883057,-0.027100,0.022278,-0.467957,0.100000,0.350000,0.700000,0.390240,0.132338,0.672830,-0.210670,0.290942,0.672884,0.000000,0.000000,
106923859,0.082458,17.540577,1,0.882935,-0.027100,0.022278,-0.468140,0.130000,0.370000,0.710000,0.424259,0.118825,0.681013,-0.038402,0.522661,0.680923,0.000000,0.000000,
106936312,-0.194855,17.535934,1,0.882874,-0.027100,0.022278,-0.468262,0.160000,0.410000,0.680000,0.472188,0.115462,0.647920,-0.122658,0.417350,0.648284,0.000000,0.000000,
106944927,0.360291,17.535934,1,0.882812,-0.027161,0.022278,-0.468384,0.140000,0.350000,0.710000,0.413449,0.099199,0.682214,0.161606,0.841810,0.681840,0.000000,0.000000,
106954013,-0.194855,17.535934,1,0.882812,-0.027161,0.022278,-0.468445,0.130000,0.370000,0.730000,0.425685,0.119159,0.700927,-0.037035,0.578199,0.700716,0.000000,0.000000,
106966642,0.082458,17.540577,1,0.882751,-0.027161,0.022278,-0.468506,0.160000,0.370000,0.710000,0.441194,0.093713,0.680561,0.039724,0.674369,0.680783,0.000000,0.000000,
106975356,-0.474228,17.540577,1,0.882751,-0.027161,0.022278,-0.468506,0.180000,0.410000,0.710000,0.485432,0.099527,0.677530,-0.253227,0.228949,0.677566,0.000000,0.000000,
106984165,0.082458,17.540577,1,0.882751,-0.027161,0.022278,-0.468506,0.200000,0.390000,0.660000,0.476874,0.070416,0.628752,-0.056889,0.491826,0.629290,0.000000,0.000000,
106996657,-0.288498,17.540577,1,0.882812,-0.027161,0.022278,-0.468445,0.180000,0.370000,0.680000,0.450452,0.076390,0.650356,-0.185139,0.332129,0.650124,0.000000,0.000000,
107005497,-0.288498,17.540577,1,0.882874,-0.027161,0.022278,-0.468323,0.160000,0.370000,0.700000,0.440521,0.093613,0.670584,-0.242264,0.248244,0.670358,0.000000,0.000000,
107014369,0.174561,17.545220,1,0.882935,-0.027100,0.022278,-0.468201,0.120000,0.410000,0.700000,0.451056,0.149181,0.668428,0.001262,0.574520,0.668449,0.000000,0.000000,
107026895,-0.010147,17.545220,1,0.883057,-0.027100,0.022278,-0.468018,0.140000,0.390000,0.680000,0.444426,0.121052,0.649571,0.001885,0.574347,0.649779,0.000000,0.000000,
107035621,-0.194855,17.535934,1,0.883118,-0.027100,0.022278,-0.467834,0.120000,0.430000,0.680000,0.466143,0.160213,0.647102,-0.107450,0.408386,0.647132,0.000000,0.000000,
107044470,-0.566833,17.545220,1,0.883179,-0.027100,0.022278,-0.467712,0.180000,0.430000,0.700000,0.501084,0.111235,0.666213,-0.369698,0.062825,0.666003,0.000000,0.000000,
107056924,0.082458,17.549863,1,0.883240,-0.027100,0.022278,-0.467590,0.160000,0.430000,0.700000,0.489820,0.127912,0.666492,-0.106392,0.399438,0.666487,0.000000,0.000000,
107065762,-0.010147,17.535934,1,0.883301,-0.027100,0.022278,-0.467468,0.120000,0.430000,0.730000,0.469248,0.161935,0.696979,-0.046885,0.489186,0.696643,0.000000,0.000000,
107074622,-0.195892,17.545220,1,0.883362,-0.027100,0.022278,-0.467407,0.160000,0.430000,0.700000,0.489781,0.128103,0.666491,-0.128782,0.380556,0.666823,0.000000,0.000000,
107087218,-0.474228,17.549863,1,0.883423,-0.027100,0.022278,-0.467285,0.140000,0.410000,0.680000,0.460719,0.132992,0.648194,-0.324520,0.137130,0.648399,0.000000,0.000000,
107095825,-0.195892,17.545220,1,0.883423,-0.027100,0.022278,-0.467224,0.100000,0.430000,0.680000,0.454678,0.177363,0.647382,-0.248543,0.255356,0.647393,0.000000,0.000000,
107104773,-0.010147,17.545220,1,0.883484,-0.027100,0.022278,-0.467163,0.100000,0.430000,0.700000,0.455961,0.177962,0.667332,-0.108252,0.442907,0.667112,0.000000,0.000000,
107117370,-0.474228,17.549863,1,0.883484,-0.027100,0.022278,-0.467163,0.140000,0.430000,0.700000,0.478462,0.144896,0.666770,-0.315134,0.184352,0.666774,0.000000,0.000000,
107126212,-0.474228,17.540577,1,0.883423,-0.027100,0.022278,-0.467224,0.130000,0.410000,0.680000,0.455064,0.141323,0.648335,-0.405997,0.050631,0.648538,0.000000,0.000000,
107135083,0.082458,17.540577,1,0.883362,-0.027100,0.022278,-0.467407,0.140000,0.390000,0.730000,0.447498,0.122991,0.699445,-0.122715,0.434120,0.698884,0.000000,0.000000,
107147560,-0.103271,17.549863,1,0.883301,-0.027100,0.022278,-0.467529,0.160000,0.390000,0.710000,0.457473,0.105789,0.679215,-0.105956,0.456799,0.679431,0.000000,0.000000,
107156157,-0.102249,17.540577,1,0.883179,-0.027100,0.022278,-0.467712,0.130000,0.370000,0.700000,0.423513,0.118942,0.671035,-0.099850,0.465800,0.671128,0.000000,0.000000,
107164999,0.453934,17.531291,1,0.883118,-0.027100,0.022278,-0.467896,0.140000,0.390000,0.700000,0.445687,0.121710,0.669521,0.224744,0.892452,0.669539,0.000000,0.000000,
107177666,-0.103271,17.549863,1,0.883057,-0.027100,0.022278,-0.468018,0.130000,0.390000,0.680000,0.438816,0.129330,0.649711,0.045660,0.663138,0.649929,0.000000,0.000000,
107186526,0.082458,17.540577,1,0.882996,-0.027100,0.022278,-0.468079,0.120000,0.350000,0.660000,0.398903,0.114599,0.632649,0.072961,0.701045,0.632840,0.000000,0.000000,
107195406,-0.102249,17.540577,1,0.882996,-0.027100,0.022278,-0.468079,0.140000,0.370000,0.680000,0.427921,0.109790,0.650946,-0.022238,0.571211,0.650747,0.000000,0.000000,
107207725,-0.102249,17.540577,1,0.882996,-0.027100,0.022278,-0.468079,0.160000,0.350000,0.710000,0.424571,0.082836,0.681967,-0.061599,0.521055,0.681623,0.000000,0.000000,
107216356,-0.102249,17.540577,1,0.882996,-0.027100,0.022278,-0.468079,0.120000,0.350000,0.700000,0.401491,0.115679,0.672551,-0.080697,0.491666,0.672651,0.000000,0.000000,
107225190,0.360291,17.535934,1,0.882996,-0.027100,0.022278,-0.468079,0.140000,0.370000,0.700000,0.429216,0.110330,0.670897,0.178840,0.832327,0.670916,0.000000,0.000000,
107245748,0.267685,17.540577,1,0.882996,-0.027100,0.022278,-0.468079,0.130000,0.350000,0.700000,0.407099,0.107401,0.672411,0.248181,0.910465,0.672394,0.000000,0.000000,
107255216,-0.751526,17.535934,1,0.882996,-0.027100,0.022278,-0.468079,0.180000,0.390000,0.680000,0.466862,0.087883,0.649013,-0.335264,-0.295920,0.649271,0.000000,0.000000,
107264964,-0.009125,17.526648,1,0.882996,-0.027100,0.022278,-0.468018,0.100000,0.390000,0.700000,0.423259,0.154707,0.670082,-0.147639,0.014582,0.669853,0.000000,0.000000,
107278868,0.083481,17.531291,1,0.883057,-0.027100,0.022278,-0.467896,0.130000,0.410000,0.700000,0.456555,0.141205,0.668288,-0.012259,0.214821,0.668306,0.000000,0.000000,
107287804,0.083481,17.531291,1,0.883118,-0.027100,0.022278,-0.467834,0.080000,0.410000,0.700000,0.428485,0.182638,0.668987,0.045603,0.312475,0.668980,0.000000,0.000000,
107296320,-0.102249,17.531291,1,0.883179,-0.027100,0.022278,-0.467773,0.130000,0.410000,0.660000,0.453954,0.140239,0.628385,-0.037397,0.199680,0.628832,0.000000,0.000000,
107308525,0.175583,17.535934,1,0.883240,-0.027100,0.022278,-0.467651,0.130000,0.410000,0.700000,0.456504,0.141440,0.668286,0.088653,0.360143,0.667851,0.000000,0.000000,
107317037,-0.381104,17.535934,1,0.883240,-0.027100,0.022278,-0.467590,0.130000,0.410000,0.680000,0.455178,0.140962,0.648336,-0.180941,-0.028157,0.648551,0.000000,0.000000,
107325910,0.267685,17.540577,1,0.883240,-0.027100,0.022278,-0.467590,0.140000,0.450000,0.680000,0.493787,0.155140,0.645448,0.078215,0.305879,0.645482,0.000000,0.000000,
107338565,-0.102249,17.531291,1,0.883240,-0.027100,0.022278,-0.467590,0.200000,0.430000,0.710000,0.512936,0.095095,0.675907,-0.022557,0.187466,0.675572,0.000000,0.000000,
107347425,-0.288498,17.540577,1,0.883179,-0.027100,0.022278,-0.467651,0.140000,0.410000,0.680000,0.460801,0.132632,0.648197,-0.175426,-0.034077,0.648499,0.000000,0.000000,
107356249,-0.102249,17.540577,1,0.883179,-0.027100,0.022278,-0.467773,0.120000,0.390000,0.710000,0.435074,0.138647,0.679776,-0.133356,0.027145,0.679431,0.000000,0.000000,
107368608,0.267685,17.540577,1,0.883118,-0.027100,0.022278,-0.467896,0.120000,0.390000,0.710000,0.435111,0.138532,0.679776,0.099699,0.321059,0.679772,0.000000,0.000000,
107377403,0.267685,17.540577,1,0.882996,-0.027100,0.022278,-0.468018,0.140000,0.390000,0.710000,0.446343,0.121868,0.679499,0.200130,0.469262,0.679502,0.000000,0.000000,
107386262,0.082458,17.540577,1,0.882935,-0.027100,0.022278,-0.468140,0.180000,0.390000,0.680000,0.466862,0.087825,0.649014,0.136234,0.386819,0.649350,0.000000,0.000000,
107398815,-0.010147,17.545220,1,0.882874,-0.027100,0.022278,-0.468262,0.200000,0.370000,0.680000,0.461582,0.059941,0.650110,0.056197,0.290719,0.650102,0.000000,0.000000,
107407694,-0.288498,17.540577,1,0.882812,-0.027161,0.022278,-0.468384,0.140000,0.370000,0.700000,0.429317,0.110123,0.670863,-0.141529,0.001470,0.670634,0.000000,0.000000,
107416427,-0.195892,17.545220,1,0.882812,-0.027161,0.022278,-0.468445,0.160000,0.350000,0.700000,0.424027,0.082304,0.671961,-0.172947,-0.033869,0.671946,0.000000,0.000000,
107428906,-0.103271,17.549863,1,0.882812,-0.027161,0.022278,-0.468445,0.160000,0.390000,0.700000,0.457063,0.104690,0.669208,-0.132892,0.024029,0.669238,0.000000,0.000000,
107437498,-0.381104,17.535934,1,0.882812,-0.027161,0.022278,-0.468445,0.200000,0.370000,0.710000,0.463598,0.060636,0.680004,-0.276838,-0.182061,0.679885,0.000000,0.000000,
107446470,-0.102249,17.540577,1,0.882812,-0.027161,0.022278,-0.468384,0.180000,0.390000,0.680000,0.466946,0.087648,0.648980,-0.177444,-0.046109,0.649320,0.000000,0.000000,
107459124,0.082458,17.540577,1,0.882874,-0.027100,0.022278,-0.468262,0.140000,0.410000,0.730000,0.464215,0.133372,0.698076,-0.027106,0.149098,0.697539,0.000000,0.000000,
107468002,0.360291,17.545220,1,0.882935,-0.027100,0.022278,-0.468140,0.130000,0.410000,0.710000,0.457278,0.141234,0.678265,0.199471,0.490218,0.678477,0.000000,0.000000,
107476717,-0.195892,17.545220,1,0.882996,-0.027100,0.022278,-0.468018,0.140000,0.410000,0.700000,0.462202,0.132807,0.668149,-0.025038,0.194372,0.668263,0.000000,0.000000,
107489293,0.453934,17.540577,1,0.883057,-0.027100,0.022278,-0.467957,0.140000,0.410000,0.700000,0.462197,0.132865,0.668148,0.255417,0.544675,0.668149,0.000000,0.000000,
107497893,-0.381104,17.535934,1,0.883057,-0.027100,0.022278,-0.467957,0.130000,0.480000,0.680000,0.513060,0.179841,0.643527,-0.109714,0.002141,0.643799,0.000000,0.000000,
107506878,-0.288498,17.549863,1,0.883057,-0.027100,0.022278,-0.467957,0.140000,0.410000,0.700000,0.462197,0.132865,0.668148,-0.213113,-0.125931,0.667880,0.000000,0.000000,
107519479,-0.659943,17.549863,1,0.883057,-0.027100,0.022278,-0.467957,0.140000,0.460000,0.680000,0.502165,0.160353,0.644762,-0.474041,-0.439881,0.645016,0.000000,0.000000,
107528322,-0.102249,17.540577,1,0.883057,-0.027100,0.022278,-0.467957,0.140000,0.410000,0.700000,0.462197,0.132865,0.668148,-0.261762,-0.112036,0.667893,0.000000,0.000000,
107537040,-0.010147,17.545220,1,0.883057,-0.027100,0.022278,-0.467957,0.160000,0.410000,0.710000,0.474065,0.116582,0.677844,-0.117101,0.085864,0.677734,0.000000,0.000000,
107549590,0.174561,17.545220,1,0.883057,-0.027100,0.022278,-0.467957,0.100000,0.410000,0.700000,0.439755,0.165972,0.668707,0.053287,0.302819,0.668807,0.000000,0.000000,
107558256,0.082458,17.540577,1,0.883057,-0.027100,0.022278,-0.467957,0.140000,0.370000,0.680000,0.427892,0.109902,0.650946,0.072887,0.333606,0.651142,0.000000,0.000000,
107567202,0.175583,17.535934,1,0.883057,-0.027100,0.022278,-0.467957,0.180000,0.370000,0.710000,0.452275,0.077606,0.680313,0.135325,0.417154,0.679991,0.000000,0.000000,
107579764,-0.010147,17.545220,1,0.883057,-0.027100,0.022278,-0.467957,0.220000,0.430000,0.680000,0.522291,0.077322,0.645704,0.056169,0.320236,0.646082,0.000000,0.000000,
107588635,-0.010147,17.535934,1,0.883057,-0.027100,0.022278,-0.468018,0.160000,0.410000,0.680000,0.472151,0.115705,0.647917,0.020481,0.268541,0.647897,0.000000,0.000000,
107597358,-0.288498,17.549863,1,0.883057,-0.027100,0.022278,-0.468018,0.200000,0.410000,0.700000,0.495883,0.083134,0.667309,-0.155974,0.037869,0.667095,0.000000,0.000000,
107609905,0.175583,17.535934,1,0.883057,-0.027100,0.022278,-0.468018,0.160000,0.410000,0.680000,0.472151,0.115705,0.647917,0.036977,0.283822,0.648128,0.000000,0.000000,
107618466,0.082458,17.540577,1,0.883057,-0.027100,0.022278,-0.468018,0.100000,0.370000,0.710000,0.407423,0.143764,0.681430,0.065858,0.328962,0.681063,0.000000,0.000000,
107627516,0.082458,17.540577,1,0.883057,-0.027100,0.022278,-0.468018,0.130000,0.390000,0.700000,0.440111,0.129870,0.669661,0.078469,0.347498,0.669787,0.000000,0.000000,
107640123,-0.010147,17.545220,1,0.883057,-0.027100,0.022278,-0.468018,0.130000,0.350000,0.710000,0.407743,0.107722,0.682385,0.031450,0.291731,0.682246,0.000000,0.000000,
107648946,-0.288498,17.540577,1,0.883057,-0.027100,0.022278,-0.468018,0.120000,0.390000,0.700000,0.434501,0.138148,0.669801,-0.151981,0.018893,0.669938,0.000000,0.000000,
107657675,-0.288498,17.549863,1,0.883057,-0.027100,0.022278,-0.467957,0.120000,0.390000,0.700000,0.434471,0.138207,0.669802,-0.230802,-0.079869,0.669803,0.000000,0.000000,
107670158,0.174561,17.554505,1,0.883057,-0.027100,0.022278,-0.467896,0.180000,0.410000,0.660000,0.482024,0.098746,0.627688,0.003501,0.219316,0.628152,0.000000,0.000000,
107678809,-0.195892,17.554505,1,0.883118,-0.027100,0.022278,-0.467834,0.130000,0.370000,0.700000,0.423544,0.118830,0.671036,-0.110439,0.053014,0.670563,0.000000,0.000000,
107687836,-0.381104,17.535934,1,0.883179,-0.027100,0.022278,-0.467773,0.160000,0.390000,0.680000,0.455588,0.104737,0.649290,-0.266578,-0.145706,0.649524,0.000000,0.000000,
107700450,-0.103271,17.549863,1,0.883179,-0.027100,0.022278,-0.467773,0.180000,0.430000,0.700000,0.501112,0.111165,0.666212,-0.173534,-0.018420,0.666028,0.000000,0.000000,
107709183,0.082458,17.549863,1,0.883179,-0.027100,0.022278,-0.467773,0.130000,0.390000,0.680000,0.438747,0.129561,0.649710,-0.024836,0.210797,0.649890,0.000000,0.000000,
107717998,0.082458,17.549863,1,0.883179,-0.027100,0.022278,-0.467773,0.120000,0.390000,0.700000,0.434427,0.138376,0.669801,0.039147,0.298664,0.669581,0.000000,0.000000,
107730401,-0.103271,17.549863,1,0.883179,-0.027100,0.022278,-0.467773,0.080000,0.410000,0.700000,0.428473,0.182693,0.668986,-0.039753,0.204099,0.668993,0.000000,0.000000,
107739155,-0.102249,17.540577,1,0.883179,-0.027100,0.022278,-0.467712,0.140000,0.430000,0.700000,0.478624,0.144329,0.666773,-0.074259,0.156056,0.666797,0.000000,0.000000,
107748160,-0.010147,17.545220,1,0.883179,-0.027100,0.022278,-0.467712,0.130000,0.430000,0.710000,0.473656,0.152873,0.676888,-0.035717,0.210916,0.676777,0.000000,0.000000,
107760770,0.082458,17.540577,1,0.883179,-0.027100,0.022278,-0.467712,0.120000,0.410000,0.700000,0.450895,0.149656,0.668427,0.035622,0.305575,0.668519,0.000000,0.000000,
107769470,0.174561,17.545220,1,0.883179,-0.027100,0.022278,-0.467712,0.120000,0.410000,0.700000,0.450895,0.149656,0.668427,0.119084,0.432916,0.668428,0.000000,0.000000,
107778237,0.082458,17.549863,1,0.883179,-0.027100,0.022278,-0.467712,0.160000,0.430000,0.700000,0.489854,0.127782,0.666493,0.101709,0.410789,0.666514,0.000000,0.000000,
107790762,-0.010666,17.554505,1,0.883179,-0.027100,0.022278,-0.467773,0.140000,0.450000,0.700000,0.495158,0.155481,0.665398,0.041683,0.338137,0.665410,0.000000,0.000000,
107799616,-0.195892,17.545220,1,0.883118,-0.027100,0.022278,-0.467896,0.200000,0.410000,0.730000,0.497802,0.084076,0.697234,-0.093409,0.138178,0.696883,0.000000,0.000000,
107808490,-0.288498,17.540577,1,0.883057,-0.027100,0.022278,-0.467957,0.120000,0.370000,0.700000,0.417966,0.126996,0.671176,-0.205092,-0.005661,0.671459,0.000000,0.000000,
107821094,-0.381104,17.545220,1,0.882996,-0.027100,0.022278,-0.468079,0.140000,0.350000,0.680000,0.411413,0.098583,0.652320,-0.307312,-0.125472,0.652531,0.000000,0.000000,
107829676,0.175583,17.535934,1,0.882935,-0.027100,0.022278,-0.468201,0.140000,0.350000,0.700000,0.412734,0.099015,0.672272,-0.027672,0.302428,0.672054,0.000000,0.000000,
107838658,-0.195892,17.545220,1,0.882874,-0.027100,0.022278,-0.468262,0.120000,0.370000,0.710000,0.418686,0.126994,0.681153,-0.122287,0.180901,0.681053,0.000000,0.000000,
107851170,-0.659943,17.549863,1,0.882874,-0.027100,0.022278,-0.468262,0.160000,0.390000,0.640000,0.453087,0.103183,0.609393,-0.432143,-0.203216,0.610182,0.000000,0.000000,
107859911,-0.288498,17.540577,1,0.882874,-0.027100,0.022278,-0.468262,0.130000,0.390000,0.710000,0.440803,0.129913,0.679639,-0.350389,-0.072157,0.678874,0.000000,0.000000,
107868825,0.174561,17.545220,1,0.882935,-0.027100,0.022278,-0.468140,0.160000,0.390000,0.710000,0.457589,0.105193,0.679220,-0.047143,0.335324,0.679216,0.000000,0.000000,
107881450,0.360291,17.545220,1,0.882996,-0.027100,0.022278,-0.468018,0.180000,0.460000,0.680000,0.524610,0.127180,0.644204,0.193730,0.640194,0.644590,0.000000,0.000000,
107890063,-0.010147,17.545220,1,0.883057,-0.027100,0.022278,-0.467896,0.130000,0.390000,0.710000,0.440699,0.130261,0.679638,0.080748,0.467442,0.679252,0.000000,0.000000,
107898905,0.267685,17.540577,1,0.883118,-0.027100,0.022278,-0.467773,0.140000,0.410000,0.700000,0.462130,0.133051,0.668148,0.193088,0.615670,0.668271,0.000000,0.000000,
107911582,-0.103271,17.549863,1,0.883240,-0.027100,0.022278,-0.467651,0.140000,0.410000,0.640000,0.458238,0.131545,0.608294,0.028877,0.408847,0.608955,0.000000,0.000000,
107920425,-0.195892,17.545220,1,0.883301,-0.027100,0.022278,-0.467529,0.080000,0.430000,0.700000,0.444868,0.194145,0.667612,-0.098197,0.217672,0.666966,0.000000,0.000000,
107929317,0.174561,17.545220,1,0.883362,-0.027100,0.022278,-0.467346,0.130000,0.430000,0.680000,0.471592,0.152437,0.646961,0.061689,0.433969,0.647182,0.000000,0.000000,
107941648,0.267166,17.549863,1,0.883423,-0.027100,0.022278,-0.467285,0.130000,0.430000,0.700000,0.472878,0.153038,0.666911,0.186375,0.592314,0.666694,0.000000,0.000000,
107950238,0.174561,17.545220,1,0.883484,-0.027100,0.022278,-0.467163,0.120000,0.410000,0.700000,0.450726,0.150188,0.668425,0.184623,0.587841,0.668406,0.000000,0.000000,
107959128,0.082458,17.549863,1,0.883484,-0.027100,0.022278,-0.467163,0.220000,0.430000,0.700000,0.523464,0.078762,0.665647,0.130762,0.516531,0.665677,0.000000,0.000000,
107971773,0.267166,17.549863,1,0.883484,-0.027100,0.022278,-0.467163,0.160000,0.430000,0.730000,0.491653,0.129174,0.696416,0.216542,0.624122,0.696077,0.000000,0.000000,
107980621,0.174561,17.545220,1,0.883484,-0.027100,0.022278,-0.467163,0.160000,0.430000,0.700000,0.489712,0.128362,0.666489,0.197677,0.593233,0.666815,0.000000,0.000000,
107989490,-0.474228,17.549863,1,0.883484,-0.027100,0.022278,-0.467163,0.120000,0.410000,0.680000,0.449433,0.149647,0.648474,-0.186055,0.080040,0.648677,0.000000,0.000000,
108001959,-0.010666,17.554505,1,0.883484,-0.027100,0.022278,-0.467163,0.130000,0.450000,0.710000,0.489969,0.164674,0.675512,-0.083172,0.216538,0.675216,0.000000,0.000000,
108010537,0.267685,17.540577,1,0.883484,-0.027100,0.022278,-0.467163,0.140000,0.450000,0.710000,0.495594,0.156407,0.675372,0.122616,0.527945,0.675370,0.000000,0.000000,
108019526,0.267685,17.540577,1,0.883484,-0.027100,0.022278,-0.467163,0.160000,0.350000,0.700000,0.423772,0.083398,0.671985,0.211346,0.644014,0.672023,0.000000,0.000000,
108032147,-0.289017,17.559148,1,0.883484,-0.027100,0.022278,-0.467224,0.200000,0.410000,0.710000,0.496399,0.084255,0.677277,-0.071037,0.287311,0.677219,0.000000,0.000000,
108040996,-0.381622,17.554505,1,0.883423,-0.027100,0.022278,-0.467285,0.100000,0.350000,0.680000,0.388762,0.132356,0.652877,-0.249098,0.020422,0.653146,0.000000,0.000000,
108049851,-0.103271,17.549863,1,0.883362,-0.027100,0.022278,-0.467407,0.160000,0.370000,0.680000,0.439013,0.093866,0.650662,-0.164460,0.138955,0.650689,0.000000,0.000000,
108062331,0.359772,17.554505,1,0.883301,-0.027100,0.022278,-0.467529,0.160000,0.390000,0.680000,0.455532,0.104978,0.649289,0.141701,0.529881,0.649304,0.000000,0.000000,
108071130,-0.288498,17.549863,1,0.883240,-0.027100,0.022278,-0.467651,0.240000,0.390000,0.660000,0.499195,0.038133,0.628218,-0.103719,0.160343,0.628450,0.000000,0.000000,
108079985,-0.010147,17.545220,1,0.883179,-0.027100,0.022278,-0.467712,0.130000,0.390000,0.710000,0.440658,0.130432,0.679637,-0.048106,0.238286,0.679073,0.000000,0.000000,
108092595,-0.103271,17.549863,1,0.883179,-0.027100,0.022278,-0.467712,0.130000,0.390000,0.710000,0.440658,0.130432,0.679637,-0.077079,0.206673,0.679630,0.000000,0.000000,
108101432,-0.010147,17.545220,1,0.883179,-0.027100,0.022278,-0.467712,0.120000,0.390000,0.700000,0.434396,0.138436,0.669801,-0.036303,0.271286,0.669910,0.000000,0.000000,
108110238,0.082458,17.549863,1,0.883240,-0.027100,0.022278,-0.467651,0.140000,0.390000,0.680000,0.444328,0.121404,0.649569,0.034865,0.368749,0.649794,0.000000,0.000000,
108122633,-0.103271,17.549863,1,0.883301,-0.027100,0.022278,-0.467529,0.160000,0.370000,0.710000,0.440979,0.094562,0.680589,-0.040698,0.276638,0.680249,0.000000,0.000000,
108131211,-0.010666,17.554505,1,0.883362,-0.027100,0.022278,-0.467407,0.180000,0.390000,0.730000,0.469980,0.089911,0.698884,-0.020849,0.308683,0.698679,0.000000,0.000000,
108140150,-0.103271,17.549863,1,0.883423,-0.027100,0.022278,-0.467285,0.120000,0.370000,0.680000,0.416496,0.127055,0.651223,-0.065759,0.252084,0.651746,0.000000,0.000000,
108152812,-0.195892,17.554505,1,0.883423,-0.027100,0.022278,-0.467224,0.140000,0.430000,0.680000,0.477174,0.144294,0.646821,-0.138080,0.165570,0.646875,0.000000,0.000000,
108161667,-0.288498,17.549863,1,0.883484,-0.027100,0.022278,-0.467163,0.130000,0.410000,0.710000,0.456998,0.142192,0.678260,-0.224072,0.039295,0.677914,0.000000,0.000000,
108170463,-0.288498,17.549863,1,0.883484,-0.027100,0.022278,-0.467102,0.120000,0.390000,0.700000,0.434210,0.139006,0.669800,-0.261001,-0.004723,0.669889,0.000000,0.000000,
108182992,0.267166,17.549863,1,0.883484,-0.027100,0.022278,-0.467102,0.140000,0.390000,0.680000,0.444170,0.121934,0.649568,0.045645,0.388263,0.649792,0.000000,0.000000,
108191782,0.267166,17.549863,1,0.883484,-0.027100,0.022278,-0.467102,0.140000,0.390000,0.700000,0.445463,0.122475,0.669519,0.177879,0.587742,0.669301,0.000000,0.000000,
108200657,-0.195892,17.545220,1,0.883484,-0.027100,0.022278,-0.467102,0.140000,0.370000,0.750000,0.432214,0.112586,0.720770,-0.033255,0.306503,0.720203,0.000000,0.000000,
108221126,-0.474731,17.559148,1,0.883484,-0.027100,0.022278,-0.467102,0.130000,0.370000,0.710000,0.424001,0.119768,0.681009,-0.285735,-0.001861,0.681441,0.000000,0.000000,
108230560,0.267685,17.540577,1,0.883484,-0.027100,0.022278,-0.467102,0.160000,0.430000,0.680000,0.488388,0.127889,0.646539,0.042000,0.674652,0.646924,0.000000,0.000000,
108240154,-0.566833,17.545220,1,0.883484,-0.027100,0.022278,-0.467102,0.100000,0.410000,0.710000,0.440087,0.167052,0.678682,-0.306954,0.114999,0.678332,0.000000,0.000000,
108253169,-0.381104,17.535934,1,0.883484,-0.027100,0.022278,-0.467102,0.160000,0.370000,0.710000,0.440880,0.094971,0.680587,-0.348677,0.063149,0.680562,0.000000,0.000000,
108262030,-0.474228,17.549863,1,0.883484,-0.027100,0.022278,-0.467102,0.080000,0.350000,0.710000,0.379386,0.149853,0.683085,-0.421267,-0.045973,0.683057,0.000000,0.000000,
108270995,-0.102249,17.540577,1,0.883484,-0.027100,0.022278,-0.467102,0.120000,0.350000,0.680000,0.399951,0.115979,0.652597,-0.236815,0.208706,0.652933,0.000000,0.000000,
108283477,-0.195892,17.545220,1,0.883484,-0.027100,0.022278,-0.467163,0.130000,0.390000,0.700000,0.439866,0.130680,0.669659,-0.210395,0.246830,0.669474,0.000000,0.000000,
108292335,-0.194855,17.535934,1,0.883484,-0.027100,0.022278,-0.467224,0.130000,0.350000,0.710000,0.407568,0.108413,0.682382,-0.199150,0.266183,0.682239,0.000000,0.000000,
108301206,0.174561,17.545220,1,0.883423,-0.027100,0.022278,-0.467224,0.130000,0.410000,0.680000,0.455064,0.141323,0.648335,0.019504,0.553967,0.648709,0.000000,0.000000,
108313721,-0.381104,17.545220,1,0.883423,-0.027100,0.022278,-0.467224,0.130000,0.410000,0.730000,0.458298,0.142676,0.698212,-0.205987,0.276933,0.697666,0.000000,0.000000,
108322581,-0.195892,17.545220,1,0.883423,-0.027100,0.022278,-0.467224,0.120000,0.370000,0.700000,0.417762,0.127654,0.671174,-0.197641,0.291489,0.671466,0.000000,0.000000,
108331321,-0.474228,17.540577,1,0.883484,-0.027100,0.022278,-0.467163,0.180000,0.390000,0.680000,0.466699,0.088806,0.649006,-0.355096,0.088562,0.649253,0.000000,0.000000,
108343800,0.360291,17.545220,1,0.883545,-0.027100,0.022278,-0.467041,0.140000,0.390000,0.700000,0.445459,0.122531,0.669518,0.061089,0.603637,0.669294,0.000000,0.000000,
108352491,-0.195892,17.554505,1,0.883667,-0.027100,0.022339,-0.466797,0.160000,0.370000,0.680000,0.438960,0.094406,0.650616,-0.082919,0.390695,0.650822,0.000000,0.000000,
108361468,-0.288498,17.540577,1,0.883728,-0.027100,0.022339,-0.466675,0.130000,0.390000,0.750000,0.443039,0.132455,0.719494,-0.198324,0.243613,0.718737,0.000000,0.000000,
108374161,0.546555,17.545220,1,0.883850,-0.027100,0.022339,-0.466492,0.140000,0.390000,0.700000,0.445397,0.123015,0.669474,0.237225,0.785804,0.670017,0.000000,0.000000,
108382864,-0.381104,17.545220,1,0.883911,-0.027100,0.022339,-0.466370,0.140000,0.390000,0.660000,0.442774,0.122050,0.629572,-0.115312,0.256813,0.630018,0.000000,0.000000,
108391625,0.174561,17.545220,1,0.883911,-0.027100,0.022339,-0.466309,0.180000,0.480000,0.680000,0.540688,0.140358,0.642768,0.054672,0.480952,0.642627,0.000000,0.000000,
108404086,-0.010666,17.554505,1,0.883911,-0.027100,0.022339,-0.466309,0.160000,0.430000,0.750000,0.492782,0.130582,0.716316,0.022813,0.443442,0.715504,0.000000,0.000000,
108412862,-0.103271,17.549863,1,0.883911,-0.027100,0.022339,-0.466309,0.140000,0.410000,0.700000,0.461799,0.134467,0.668099,-0.046525,0.341747,0.668621,0.000000,0.000000,
108421778,-0.195892,17.554505,1,0.883911,-0.027100,0.022339,-0.466309,0.140000,0.430000,0.710000,0.478909,0.146011,0.676700,-0.129882,0.235296,0.676610,0.000000,0.000000,
108434374,0.082458,17.540577,1,0.883911,-0.027100,0.022339,-0.466309,0.120000,0.390000,0.680000,0.432758,0.139164,0.649807,-0.003613,0.395927,0.650103,0.000000,0.000000,
108443099,0.174561,17.545220,1,0.883972,-0.027100,0.022339,-0.466248,0.080000,0.410000,0.710000,0.428587,0.184326,0.678927,0.103421,0.555596,0.678609,0.000000,0.000000,
108451929,-0.195892,17.554505,1,0.883972,-0.027100,0.022339,-0.466187,0.080000,0.390000,0.640000,0.407557,0.171210,0.610475,-0.064842,0.334829,0.611226,0.000000,0.000000,
108464471,-0.195892,17.554505,1,0.884094,-0.027100,0.022339,-0.466003,0.210000,0.390000,0.660000,0.482203,0.064637,0.628574,-0.136648,0.248901,0.628382,0.000000,0.000000,
108473327,-0.195892,17.545220,1,0.884155,-0.027039,0.022339,-0.465820,0.190000,0.370000,0.700000,0.456967,0.071053,0.670168,-0.168853,0.203853,0.669707,0.000000,0.000000,
108482169,0.360291,17.545220,1,0.884277,-0.027039,0.022339,-0.465637,0.130000,0.430000,0.710000,0.473014,0.154876,0.676883,0.139224,0.612476,0.676804,0.000000,0.000000,
108494675,-0.010147,17.545220,1,0.884338,-0.027039,0.022339,-0.465454,0.150000,0.330000,0.710000,0.402049,0.082052,0.683458,0.060241,0.513599,0.683385,0.000000,0.000000,
108503262,-0.010666,17.554505,1,0.884460,-0.027039,0.022339,-0.465332,0.210000,0.370000,0.680000,0.466941,0.054498,0.649924,0.023478,0.458116,0.650293,0.000000,0.000000,
108512149,0.081940,17.559148,1,0.884521,-0.027039,0.022339,-0.465210,0.150000,0.410000,0.710000,0.467769,0.127512,0.677966,0.061398,0.507991,0.677661,0.000000,0.000000,
108524635,0.082458,17.549863,1,0.884583,-0.027039,0.022339,-0.465088,0.130000,0.450000,0.700000,0.488625,0.166482,0.665533,0.080015,0.531408,0.665667,0.000000,0.000000,
108533373,-0.195892,17.554505,1,0.884583,-0.027039,0.022339,-0.465088,0.070000,0.430000,0.700000,0.438209,0.204605,0.667768,-0.075649,0.299828,0.667744,0.000000,0.000000,
108542392,0.174561,17.545220,1,0.884583,-0.027039,0.022339,-0.465088,0.130000,0.390000,0.680000,0.438035,0.131986,0.649699,0.071899,0.495098,0.649898,0.000000,0.000000,
108554979,0.081940,17.559148,1,0.884583,-0.027039,0.022339,-0.465027,0.070000,0.430000,0.700000,0.438169,0.204664,0.667768,0.084014,0.510798,0.667572,0.000000,0.000000,
108563585,0.174561,17.545220,1,0.884644,-0.027039,0.022339,-0.465027,0.130000,0.390000,0.660000,0.436736,0.131499,0.629747,0.141060,0.594932,0.630164,0.000000,0.000000,
108572548,-0.010147,17.545220,1,0.884644,-0.027039,0.022339,-0.464905,0.140000,0.430000,0.680000,0.476491,0.146574,0.646811,0.058915,0.486519,0.646628,0.000000,0.000000,
108585123,-0.289017,17.559148,1,0.884705,-0.027039,0.022400,-0.464783,0.150000,0.390000,0.620000,0.445459,0.114144,0.589517,-0.136914,0.242111,0.590146,0.000000,0.000000,
108593988,-0.288498,17.549863,1,0.884827,-0.027039,0.022400,-0.464661,0.190000,0.350000,0.710000,0.441126,0.061080,0.681459,-0.222873,0.116540,0.680453,0.000000,0.000000,
108602878,-0.195892,17.554505,1,0.884888,-0.027039,0.022400,-0.464539,0.190000,0.390000,0.730000,0.475242,0.084414,0.698662,-0.206190,0.143432,0.698461,0.000000,0.000000,
108615274,0.267166,17.549863,1,0.884888,-0.027039,0.022400,-0.464478,0.210000,0.370000,0.750000,0.471449,0.057216,0.719696,0.070413,0.495803,0.719462,0.000000,0.000000,
108623866,0.174561,17.545220,1,0.884949,-0.027039,0.022400,-0.464417,0.140000,0.430000,0.640000,0.473841,0.145951,0.606863,0.135204,0.590753,0.608104,0.000000,0.000000,
108632754,-0.288498,17.549863,1,0.884949,-0.027039,0.022400,-0.464417,0.140000,0.450000,0.750000,0.497379,0.160270,0.715219,-0.104652,0.278364,0.714038,0.000000,0.000000,
108645451,-0.103271,17.559148,1,0.884888,-0.027039,0.022400,-0.464478,0.140000,0.450000,0.710000,0.494797,0.159125,0.675319,-0.100262,0.287935,0.675745,0.000000,0.000000,
108654302,0.267166,17.549863,1,0.884827,-0.027039,0.022400,-0.464600,0.140000,0.410000,0.680000,0.460058,0.135510,0.648139,0.115974,0.614524,0.648444,0.000000,0.000000,
108663141,-0.195892,17.554505,1,0.884766,-0.027039,0.022400,-0.464722,0.090000,0.390000,0.700000,0.416613,0.165775,0.670189,-0.059110,0.380682,0.669949,0.000000,0.000000,
108675526,-0.195892,17.554505,1,0.884705,-0.027039,0.022400,-0.464844,0.110000,0.390000,0.680000,0.426699,0.148651,0.649948,-0.133739,0.289557,0.650169,0.000000,0.000000,
108684122,-0.103271,17.549863,1,0.884644,-0.027039,0.022339,-0.464905,0.130000,0.410000,0.700000,0.455690,0.144028,0.668278,-0.113524,0.321567,0.668078,0.000000,0.000000,
108692993,-0.010147,17.545220,1,0.884644,-0.027039,0.022339,-0.464905,0.150000,0.370000,0.730000,0.436111,0.105714,0.700661,-0.050834,0.405664,0.700302,0.000000,0.000000,
108705746,-0.010666,17.554505,1,0.884644,-0.027039,0.022339,-0.464905,0.190000,0.430000,0.680000,0.504828,0.105386,0.646092,-0.022287,0.442849,0.646689,0.000000,0.000000,
108714606,0.082458,17.549863,1,0.884644,-0.027039,0.022339,-0.464905,0.150000,0.390000,0.680000,0.449305,0.115686,0.649412,0.042582,0.540457,0.649382,0.000000,0.000000,
108723496,-0.103271,17.549863,1,0.884705,-0.027039,0.022400,-0.464844,0.230000,0.390000,0.700000,0.496015,0.050346,0.668159,-0.037036,0.433882,0.667953,0.000000,0.000000,
108735838,-0.010666,17.554505,1,0.884705,-0.027039,0.022400,-0.464844,0.210000,0.390000,0.700000,0.484678,0.066821,0.668449,-0.016322,0.461357,0.668444,0.000000,0.000000,
108744441,-0.288498,17.549863,1,0.884644,-0.027039,0.022339,-0.464966,0.190000,0.430000,0.680000,0.504855,0.105315,0.646091,-0.170465,0.232112,0.646338,0.000000,0.000000,
108753350,0.174561,17.545220,1,0.884583,-0.027039,0.022339,-0.465088,0.130000,0.390000,0.710000,0.439975,0.132797,0.679625,0.031264,0.498496,0.679258,0.000000,0.000000,
108765992,0.359772,17.554505,1,0.884460,-0.027039,0.022339,-0.465271,0.130000,0.390000,0.710000,0.440016,0.132627,0.679627,0.228340,0.744687,0.679623,0.000000,0.000000,
108774876,0.082458,17.549863,1,0.884399,-0.027039,0.022339,-0.465454,0.110000,0.390000,0.700000,0.428120,0.148671,0.669938,0.150147,0.623135,0.670045,0.000000,0.000000,
108783709,-0.103271,17.559148,1,0.884277,-0.027039,0.022339,-0.465576,0.130000,0.370000,0.680000,0.421708,0.120230,0.651075,0.008959,0.433281,0.651284,0.000000,0.000000,
108796192,-0.381622,17.554505,1,0.884277,-0.027039,0.022339,-0.465698,0.140000,0.330000,0.680000,0.394519,0.089274,0.653675,-0.212336,0.157365,0.653649,0.000000,0.000000,
108805012,-0.659943,17.559148,1,0.884277,-0.027039,0.022339,-0.465698,0.150000,0.410000,0.700000,0.467258,0.126749,0.667993,-0.471134,-0.225675,0.667835,0.000000,0.000000,
108813830,0.267166,17.549863,1,0.884277,-0.027039,0.022339,-0.465637,0.190000,0.390000,0.710000,0.474044,0.082797,0.678768,-0.045749,0.346655,0.678648,0.000000,0.000000,
108826450,-0.288498,17.549863,1,0.884338,-0.027039,0.022339,-0.465515,0.230000,0.390000,0.680000,0.494705,0.049130,0.648268,-0.182259,0.178873,0.648602,0.000000,0.000000,
108835292,-0.195892,17.554505,1,0.884460,-0.027039,0.022339,-0.465332,0.210000,0.410000,0.710000,0.501759,0.077928,0.677106,-0.188579,0.172944,0.676791,0.000000,0.000000,
108844018,0.174561,17.554505,1,0.884521,-0.027039,0.022339,-0.465210,0.170000,0.390000,0.680000,0.460717,0.098903,0.649125,0.023153,0.458376,0.649430,0.000000,0.000000,
108856470,0.452911,17.549863,1,0.884583,-0.027039,0.022339,-0.465088,0.110000,0.370000,0.710000,0.412215,0.137959,0.681285,0.278343,0.777295,0.680934,0.000000,0.000000,
108865047,0.174042,17.563791,1,0.884644,-0.027039,0.022339,-0.465027,0.150000,0.390000,0.680000,0.449359,0.115561,0.649411,0.224430,0.692529,0.649758,0.000000,0.000000,
108873986,-0.195892,17.554505,1,0.884644,-0.027039,0.022339,-0.465027,0.140000,0.370000,0.700000,0.428557,0.113022,0.670877,-0.012569,0.380873,0.670645,0.000000,0.000000,
108886631,-0.289017,17.559148,1,0.884583,-0.027039,0.022339,-0.465027,0.150000,0.410000,0.660000,0.464472,0.126347,0.628089,-0.168216,0.188104,0.628558,0.000000,0.000000,
108895502,0.082458,17.549863,1,0.884583,-0.027039,0.022339,-0.465027,0.140000,0.450000,0.680000,0.492960,0.157769,0.645439,-0.020737,0.413566,0.645253,0.000000,0.000000,
108904305,0.081940,17.559148,1,0.884583,-0.027039,0.022339,-0.465027,0.140000,0.430000,0.710000,0.478470,0.147260,0.676738,0.042375,0.498916,0.676391,0.000000,0.000000,
108916753,-0.195892,17.554505,1,0.884644,-0.027039,0.022339,-0.464966,0.170000,0.460000,0.680000,0.518166,0.138777,0.644321,-0.089684,0.333619,0.644674,0.000000,0.000000,
108925390,0.174561,17.554505,1,0.884705,-0.027039,0.022400,-0.464844,0.210000,0.410000,0.680000,0.499809,0.077608,0.647125,0.066790,0.568737,0.647098,0.000000,0.000000,
108934374,0.359772,17.554505,1,0.884827,-0.027039,0.022400,-0.464600,0.170000,0.390000,0.710000,0.462600,0.100283,0.679003,0.241495,0.797448,0.678652,0.000000,0.000000,
108946997,0.359772,17.554505,1,0.884949,-0.027039,0.022400,-0.464355,0.210000,0.410000,0.700000,0.501023,0.078679,0.667072,0.320300,0.892220,0.667199,0.000000,0.000000,
108955831,-0.103271,17.549863,1,0.885071,-0.027039,0.022400,-0.464111,0.170000,0.350000,0.710000,0.429681,0.078060,0.681746,0.081876,0.526473,0.681586,0.000000,0.000000,
108964619,-0.103271,17.549863,1,0.885132,-0.027039,0.022400,-0.463989,0.150000,0.390000,0.700000,0.450452,0.117073,0.669315,-0.020657,0.389355,0.669451,0.000000,0.000000,
108977208,0.545517,17.554505,1,0.885193,-0.027039,0.022400,-0.463928,0.140000,0.430000,0.680000,0.476273,0.147536,0.646763,0.313017,0.808926,0.647013,0.000000,0.000000,
108985901,0.452911,17.549863,1,0.885193,-0.027039,0.022400,-0.463928,0.170000,0.430000,0.710000,0.495272,0.123672,0.676252,0.401404,0.937192,0.675930,0.000000,0.000000,
108994787,-0.195892,17.554505,1,0.885132,-0.027039,0.022400,-0.464050,0.130000,0.410000,0.680000,0.454224,0.144280,0.648282,0.064033,0.485986,0.648587,0.000000,0.000000,
109007435,0.452911,17.549863,1,0.885071,-0.027039,0.022400,-0.464111,0.140000,0.450000,0.700000,0.494021,0.159246,0.665342,0.296046,0.777543,0.665158,0.000000,0.000000,
109016289,-0.659943,17.559148,1,0.885010,-0.027039,0.022400,-0.464233,0.150000,0.450000,0.700000,0.499743,0.150886,0.665197,-0.253035,-0.056112,0.665197,0.000000,0.000000,
109024954,0.267166,17.549863,1,0.884949,-0.027039,0.022400,-0.464355,0.110000,0.410000,0.700000,0.444248,0.160986,0.668525,0.047621,0.352100,0.668489,0.000000,0.000000,
109037455,0.082458,17.549863,1,0.884949,-0.027039,0.022400,-0.464417,0.150000,0.390000,0.700000,0.450572,0.116655,0.669316,0.072295,0.385617,0.669307,0.000000,0.000000,
109046029,-0.289017,17.559148,1,0.884949,-0.027039,0.022400,-0.464417,0.150000,0.370000,0.700000,0.434157,0.105311,0.670690,-0.134337,0.077263,0.670674,0.000000,0.000000,
109055121,-0.103271,17.559148,1,0.884949,-0.027039,0.022400,-0.464417,0.140000,0.410000,0.660000,0.458721,0.135148,0.628187,-0.115628,0.106517,0.628655,0.000000,0.000000,
109067754,0.174561,17.545220,1,0.884949,-0.027039,0.022400,-0.464417,0.250000,0.390000,0.680000,0.506040,0.033796,0.647913,0.054321,0.327851,0.647700,0.000000,0.000000,
109076558,0.174561,17.554505,1,0.884888,-0.027039,0.022400,-0.464478,0.230000,0.410000,0.700000,0.512393,0.062081,0.666782,0.127165,0.439605,0.666572,0.000000,0.000000,
109085288,0.081940,17.559148,1,0.884827,-0.027039,0.022400,-0.464539,0.190000,0.370000,0.710000,0.457506,0.072543,0.680086,0.104849,0.410599,0.679938,0.000000,0.000000,
109097784,0.081940,17.559148,1,0.884766,-0.027039,0.022400,-0.464661,0.150000,0.350000,0.700000,0.417769,0.093755,0.672066,0.096734,0.402396,0.672152,0.000000,0.000000,
109106418,-0.195892,17.554505,1,0.884705,-0.027039,0.022400,-0.464783,0.090000,0.330000,0.730000,0.369296,0.132543,0.704236,-0.069838,0.153722,0.703882,0.000000,0.000000,
109115454,0.359772,17.554505,1,0.884644,-0.027039,0.022339,-0.464905,0.110000,0.370000,0.700000,0.411502,0.137852,0.671310,0.180250,0.486799,0.671669,0.000000,0.000000,
109128058,0.545517,17.554505,1,0.884583,-0.027039,0.022339,-0.465027,0.070000,0.370000,0.710000,0.389525,0.170972,0.681861,0.398582,0.763364,0.681748,0.000000,0.000000,
109136783,-0.195892,17.554505,1,0.884521,-0.027039,0.022339,-0.465149,0.090000,0.410000,0.710000,0.433763,0.177021,0.678829,0.059586,0.246603,0.678861,0.000000,0.000000,
109145615,-0.289017,17.559148,1,0.884521,-0.027039,0.022339,-0.465149,0.090000,0.410000,0.710000,0.433763,0.177021,0.678829,-0.140001,-0.015417,0.678829,0.000000,0.000000,
109158113,-0.753067,17.563791,1,0.884521,-0.027039,0.022339,-0.465149,0.170000,0.410000,0.680000,0.477125,0.110284,0.647753,-0.496062,-0.453508,0.648096,0.000000,0.000000,
109166978,0.638138,17.559148,1,0.884583,-0.027039,0.022339,-0.465027,0.140000,0.450000,0.660000,0.491667,0.157228,0.625489,0.159405,0.541360,0.625738,0.000000,0.000000,
109175827,-0.103271,17.549863,1,0.884644,-0.027039,0.022339,-0.464966,0.230000,0.450000,0.710000,0.545888,0.084495,0.674070,0.012146,0.344489,0.673538,0.000000,0.000000,
109196266,0.267166,17.559148,1,0.884705,-0.027039,0.022400,-0.464844,0.190000,0.390000,0.700000,0.473342,0.083295,0.668739,0.168873,0.544333,0.668792,0.000000,0.000000,
109205574,-0.288498,17.549863,1,0.884705,-0.027039,0.022400,-0.464844,0.150000,0.370000,0.750000,0.437481,0.106267,0.720569,-0.096786,-0.002458,0.719999,0.000000,0.000000,
109215292,-0.566833,17.545220,1,0.884644,-0.027039,0.022339,-0.464966,0.170000,0.370000,0.680000,0.444235,0.087823,0.650496,-0.371186,-0.430523,0.651262,0.000000,0.000000,
109246950,-0.103271,17.549863,1,0.884399,-0.027039,0.022339,-0.465393,0.140000,0.370000,0.700000,0.428623,0.112690,0.670881,-0.223984,-0.189128,0.670664,0.000000,0.000000,
109256114,-0.009125,17.526648,1,0.884399,-0.027039,0.022339,-0.465393,0.140000,0.390000,0.710000,0.445709,0.124267,0.679484,-0.094641,0.172147,0.679386,0.000000,0.000000,
109265766,-0.009125,17.526648,1,0.884460,-0.027039,0.022339,-0.465271,0.130000,0.350000,0.710000,0.407143,0.110003,0.682371,-0.042584,0.270517,0.682338,0.000000,0.000000,
109278297,0.083481,17.531291,1,0.884583,-0.027039,0.022339,-0.465088,0.130000,0.370000,0.660000,0.420309,0.120126,0.631121,0.034576,0.385982,0.631685,0.000000,0.000000,
109287049,0.083481,17.531291,1,0.884705,-0.027039,0.022400,-0.464844,0.150000,0.370000,0.700000,0.434242,0.104916,0.670693,0.066451,0.434669,0.670263,0.000000,0.000000,
109296242,-0.102249,17.540577,1,0.884827,-0.027039,0.022400,-0.464539,0.140000,0.430000,0.710000,0.478387,0.147724,0.676693,-0.027170,0.317165,0.676622,0.000000,0.000000,
109308952,-0.010147,17.535934,1,0.885010,-0.027039,0.022400,-0.464294,0.190000,0.390000,0.710000,0.473903,0.084123,0.678710,-0.013207,0.337581,0.678687,0.000000,0.000000,
109317551,0.174561,17.545220,1,0.885132,-0.027039,0.022400,-0.464050,0.170000,0.430000,0.710000,0.495305,0.123541,0.676253,0.098712,0.496981,0.676280,0.000000,0.000000,
109326593,-0.381104,17.535934,1,0.885193,-0.027039,0.022400,-0.463867,0.190000,0.460000,0.680000,0.529273,0.123525,0.643976,-0.174089,0.164485,0.644332,0.000000,0.000000,
109339202,-0.195892,17.545220,1,0.885254,-0.027039,0.022400,-0.463806,0.140000,0.430000,0.680000,0.476234,0.147661,0.646763,-0.184603,0.157880,0.646736,0.000000,0.000000,
109348034,-0.288498,17.540577,1,0.885315,-0.027039,0.022400,-0.463684,0.110000,0.460000,0.680000,0.483719,0.189510,0.645141,-0.243485,0.079330,0.645158,0.000000,0.000000,
109356906,-0.659439,17.540577,1,0.885315,-0.027039,0.022400,-0.463623,0.090000,0.460000,0.640000,0.469708,0.204934,0.605532,-0.483191,-0.212311,0.605969,0.000000,0.000000,
109369331,0.082458,17.540577,1,0.885376,-0.027039,0.022400,-0.463562,0.090000,0.410000,0.710000,0.433243,0.178454,0.678791,-0.157969,0.178634,0.677988,0.000000,0.000000,
109377927,-0.474228,17.540577,1,0.885437,-0.026978,0.022400,-0.463440,0.110000,0.410000,0.660000,0.441311,0.160705,0.628664,-0.339861,-0.071057,0.629208,0.000000,0.000000,
109386767,-0.567337,17.554505,1,0.885498,-0.026978,0.022400,-0.463379,0.130000,0.450000,0.710000,0.488704,0.168439,0.675506,-0.471889,-0.225481,0.674996,0.000000,0.000000,
109399431,-0.010147,17.535934,1,0.885498,-0.026978,0.022400,-0.463318,0.140000,0.430000,0.700000,0.477332,0.148634,0.666755,-0.207072,0.094077,0.666846,0.000000,0.000000,
109408288,-0.381104,17.535934,1,0.885498,-0.026978,0.022400,-0.463318,0.150000,0.390000,0.700000,0.450255,0.117648,0.669350,-0.307246,-0.042519,0.669322,0.000000,0.000000,
109417178,-0.381622,17.554505,1,0.885498,-0.026978,0.022400,-0.463318,0.210000,0.430000,0.700000,0.517209,0.091112,0.665728,-0.350602,-0.090403,0.665768,0.000000,0.000000,
109429599,-0.195892,17.545220,1,0.885498,-0.026978,0.022400,-0.463379,0.190000,0.410000,0.700000,0.489454,0.096094,0.667392,-0.261986,0.023975,0.667374,0.000000,0.000000,
109438208,-0.010147,17.545220,1,0.885376,-0.027039,0.022400,-0.463501,0.150000,0.410000,0.700000,0.466719,0.128924,0.667940,-0.115625,0.235453,0.667934,0.000000,0.000000,
109447099,-0.010147,17.545220,1,0.885315,-0.027039,0.022400,-0.463623,0.130000,0.410000,0.710000,0.456019,0.145514,0.678208,-0.052544,0.316834,0.678095,0.000000,0.000000,
109459726,0.174561,17.554505,1,0.885254,-0.027039,0.022400,-0.463806,0.090000,0.350000,0.700000,0.383494,0.143858,0.672934,0.083182,0.480723,0.672991,0.000000,0.000000,
109468574,0.082458,17.549863,1,0.885132,-0.027039,0.022400,-0.463989,0.130000,0.390000,0.710000,0.439731,0.133795,0.679582,0.087042,0.486138,0.679509,0.000000,0.000000,
109477464,-0.381622,17.554505,1,0.885071,-0.027039,0.022400,-0.464172,0.150000,0.370000,0.700000,0.434102,0.105539,0.670688,-0.179644,0.149550,0.670786,0.000000,0.000000,
109489929,-0.381104,17.545220,1,0.884949,-0.027039,0.022400,-0.464355,0.110000,0.370000,0.700000,0.411422,0.138294,0.671272,-0.294551,0.018309,0.671266,0.000000,0.000000,
109498704,-0.659943,17.559148,1,0.884888,-0.027039,0.022400,-0.464539,0.150000,0.410000,0.660000,0.464431,0.126794,0.628042,-0.506506,-0.278458,0.628519,0.000000,0.000000,
109507603,-0.381622,17.554505,1,0.884827,-0.027039,0.022400,-0.464600,0.170000,0.410000,0.680000,0.477076,0.110808,0.647704,-0.436743,-0.181606,0.647492,0.000000,0.000000,
109520155,-0.289017,17.559148,1,0.884827,-0.027039,0.022400,-0.464600,0.190000,0.430000,0.700000,0.506137,0.106218,0.665991,-0.353295,-0.070649,0.665787,0.000000,0.000000,
109529054,0.082458,17.549863,1,0.884827,-0.027039,0.022400,-0.464600,0.140000,0.410000,0.710000,0.462001,0.136321,0.678065,-0.100800,0.298792,0.677930,0.000000,0.000000,
109537782,-0.103271,17.549863,1,0.884827,-0.027039,0.022400,-0.464600,0.150000,0.410000,0.680000,0.465731,0.127276,0.647994,-0.099597,0.302621,0.648324,0.000000,0.000000,
109550188,-0.381622,17.554505,1,0.884888,-0.027039,0.022400,-0.464539,0.130000,0.370000,0.710000,0.423484,0.121935,0.680956,-0.259307,0.115650,0.680596,0.000000,0.000000,
109558775,-0.103271,17.549863,1,0.884888,-0.027039,0.022400,-0.464478,0.150000,0.310000,0.700000,0.384911,0.071234,0.674810,-0.167723,0.250863,0.674874,0.000000,0.000000,
109567730,-0.103271,17.559148,1,0.884888,-0.027039,0.022400,-0.464478,0.190000,0.290000,0.560000,0.382129,0.023177,0.535948,-0.128192,0.302432,0.537479,0.000000,0.000000,
109580346,0.174561,17.554505,1,0.884888,-0.027039,0.022400,-0.464478,0.140000,0.500000,0.680000,0.533894,0.186667,0.641959,0.051293,0.522055,0.640808,0.000000,0.000000,
109589207,-0.474228,17.549863,1,0.884888,-0.027039,0.022400,-0.464478,0.170000,0.410000,0.770000,0.482875,0.113368,0.737481,-0.249362,0.085586,0.736416,0.000000,0.000000,
109598061,-0.195892,17.545220,1,0.884949,-0.027039,0.022400,-0.464417,0.150000,0.310000,0.660000,0.382321,0.070199,0.634908,-0.217647,0.131008,0.636027,0.000000,0.000000,
109610469,-0.103271,17.559148,1,0.885010,-0.027039,0.022400,-0.464233,0.110000,0.350000,0.770000,0.399508,0.128946,0.742472,-0.149622,0.220684,0.741299,0.000000,0.000000,
109619064,-0.103271,17.559148,1,0.885193,-0.027039,0.022400,-0.463928,0.140000,0.250000,0.710000,0.330594,0.046094,0.689047,-0.120789,0.265445,0.689622,0.000000,0.000000,
109628134,-0.659943,17.559148,1,0.885437,-0.027039,0.022400,-0.463440,0.190000,0.430000,0.640000,0.501998,0.105858,0.606130,-0.430184,-0.123884,0.607050,0.000000,0.000000,
109640731,0.174561,17.554505,1,0.885742,-0.026978,0.022461,-0.462891,0.110000,0.330000,0.710000,0.378934,0.116937,0.683988,-0.080755,0.313583,0.683140,0.000000,0.000000,
109649600,0.174561,17.554505,1,0.886108,-0.026978,0.022461,-0.462158,-0.220000,0.460000,0.710000,0.296371,0.462489,0.679979,0.070420,0.536678,0.680014,0.000000,0.000000,
109658385,0.267166,17.549863,1,0.886597,-0.026978,0.022461,-0.461243,-0.240000,0.560000,0.830000,0.373402,0.539998,0.793149,0.188996,0.691245,0.791902,0.000000,0.000000,
109670979,-0.753067,17.563791,1,0.887207,-0.026917,0.022522,-0.460083,0.580000,0.140000,0.710000,0.493949,-0.374478,0.689850,-0.348820,0.035349,0.690974,0.000000,0.000000,
109679597,-0.289017,17.559148,1,0.887878,-0.026917,0.022522,-0.458679,0.490000,0.100000,0.680000,0.408639,-0.323470,0.663981,-0.313753,0.091900,0.664279,0.000000,0.000000,
109688548,-0.474731,17.559148,1,0.888550,-0.026917,0.022461,-0.457397,0.100000,0.330000,0.620000,0.365909,0.126954,0.594381,-0.406023,-0.021974,0.595152,0.000000,0.000000,
109701246,-0.196396,17.563791,1,0.889160,-0.026855,0.022461,-0.456238,-0.060000,0.440000,0.810000,0.373699,0.327026,0.778909,-0.284580,0.136664,0.776884,0.000000,0.000000,
109710099,0.174561,17.554505,1,0.889893,-0.026794,0.022400,-0.454895,0.390000,0.190000,0.750000,0.429986,-0.184642,0.729197,-0.016465,0.536880,0.729722,0.000000,0.000000,
109718718,-0.474731,17.559148,1,0.890686,-0.026733,0.022461,-0.453308,0.100000,0.590000,0.660000,0.576928,0.283800,0.616702,-0.276929,0.196384,0.617947,0.000000,0.000000,
109731167,-0.010666,17.554505,1,0.891602,-0.026733,0.022522,-0.451477,0.030000,0.400000,0.600000,0.377868,0.228576,0.570850,-0.120014,0.390436,0.571369,0.000000,0.000000,
109739778,0.082458,17.549863,1,0.892639,-0.026672,0.022583,-0.449341,0.250000,0.110000,0.700000,0.281902,-0.116301,0.686733,0.000951,0.567485,0.685462,0.000000,0.000000,
109748875,0.081940,17.559148,1,0.893799,-0.026611,0.022644,-0.447083,-0.470000,0.440000,0.710000,0.115125,0.659071,0.686268,0.052995,0.633672,0.686259,0.000000,0.000000,
109761509,-0.567337,17.563791,1,0.895081,-0.026550,0.022705,-0.444580,0.110000,0.210000,0.770000,0.282758,0.060064,0.752026,-0.299048,0.197863,0.751301,0.000000,0.000000,
109770332,-0.288498,17.549863,1,0.896423,-0.026550,0.022766,-0.441772,0.380000,0.280000,0.770000,0.502204,-0.109953,0.742560,-0.291141,0.213498,0.742656,0.000000,0.000000,
109779039,-0.195892,17.554505,1,0.897888,-0.026611,0.022766,-0.438843,0.280000,0.380000,0.660000,0.513265,0.030454,0.627721,-0.234147,0.291033,0.628988,0.000000,0.000000,
109791486,-0.010666,17.554505,1,0.899414,-0.026611,0.022766,-0.435730,0.080000,0.220000,0.700000,0.266610,0.092969,0.681966,-0.100826,0.457871,0.681382,0.000000,0.000000,
109800119,-0.381622,17.554505,1,0.900940,-0.026550,0.022827,-0.432495,0.230000,0.210000,0.710000,0.352625,-0.028429,0.689888,-0.259941,0.225072,0.689794,0.000000,0.000000,
109809206,0.174561,17.554505,1,0.902588,-0.026550,0.022949,-0.429016,0.420000,0.320000,0.660000,0.554763,-0.105391,0.628905,-0.006470,0.554436,0.629576,0.000000,0.000000,
109821802,-0.196396,17.563791,1,0.904358,-0.026489,0.023071,-0.425354,-0.360000,0.070000,0.810000,-0.123528,0.344887,0.810183,-0.109683,0.427681,0.808193,0.000000,0.000000,
109830508,0.081940,17.559148,1,0.906128,-0.026489,0.023071,-0.421509,0.320000,0.740000,0.730000,0.817142,0.252023,0.672048,0.005437,0.598901,0.673548,0.000000,0.000000,
109839286,0.174561,17.554505,1,0.908020,-0.026367,0.023193,-0.417480,0.410000,0.200000,0.730000,0.464848,-0.160523,0.706507,0.108571,0.732623,0.706144,0.000000,0.000000,
109851773,-0.660461,17.568434,1,0.909790,-0.026306,0.023254,-0.413574,-0.460000,0.180000,0.680000,-0.123338,0.484372,0.675700,-0.328438,0.193418,0.676036,0.000000,0.000000,
109860680,0.267166,17.559148,1,0.911438,-0.026123,0.023560,-0.409912,0.020000,0.330000,0.750000,0.307705,0.224910,0.725625,0.019459,0.709499,0.725079,0.000000,0.000000,
109869552,-0.103271,17.559148,1,0.913147,-0.026001,0.023804,-0.406189,0.820000,0.860000,0.700000,1.230606,-0.014549,0.622465,-0.045256,0.621700,0.623596,0.000000,0.000000,
109882177,0.082458,17.549863,1,0.914795,-0.025940,0.023987,-0.402405,-0.300000,0.520000,0.830000,0.233452,0.595506,0.800113,0.036797,0.723693,0.798168,0.000000,0.000000,
109890764,-0.474731,17.559148,1,0.916382,-0.025818,0.024109,-0.398804,0.530000,0.330000,0.700000,0.646932,-0.143791,0.663788,-0.254232,0.286682,0.665269,0.000000,0.000000,
109899621,-0.103271,17.549863,1,0.917847,-0.025757,0.024292,-0.395325,0.490000,0.520000,0.640000,0.754549,0.018542,0.591950,-0.164333,0.405314,0.592758,0.000000,0.000000,
109912068,-0.381622,17.563791,1,0.919128,-0.025574,0.024475,-0.392395,-0.420000,0.300000,0.700000,-0.028594,0.530167,0.688847,-0.285321,0.258386,0.687788,0.000000,0.000000,
109920925,0.174561,17.554505,1,0.920349,-0.025513,0.024780,-0.389465,0.510000,0.790000,0.770000,0.970423,0.204352,0.702576,-0.015749,0.658776,0.702413,0.000000,0.000000,
109929868,-0.289017,17.568434,1,0.921509,-0.025085,0.024841,-0.386719,0.240000,0.770000,0.660000,0.758783,0.385201,0.601630,-0.168004,0.456457,0.602740,0.000000,0.000000,
109942489,-0.196396,17.563791,1,0.922485,-0.024658,0.024719,-0.384460,-0.100000,0.480000,0.600000,0.308312,0.424464,0.570241,-0.178682,0.443106,0.570599,0.000000,0.000000,
109951054,-0.289017,17.559148,1,0.923096,-0.024597,0.024780,-0.382935,-0.140000,0.660000,0.830000,0.420634,0.586724,0.789247,-0.238982,0.354031,0.786837,0.000000,0.000000,
109960032,0.081940,17.568434,1,0.923523,-0.024536,0.024902,-0.382019,0.090000,0.560000,0.620000,0.498215,0.348562,0.579999,-0.050078,0.600765,0.582278,0.000000,0.000000,
109972657,-0.381622,17.563791,1,0.923645,-0.024475,0.024963,-0.381592,0.170000,0.800000,0.710000,0.729234,0.464594,0.652189,-0.234926,0.369413,0.651419,0.000000,0.000000,
109981537,-0.289017,17.559148,1,0.923645,-0.024475,0.024963,-0.381653,0.030000,0.590000,0.710000,0.482472,0.414800,0.669524,-0.263070,0.328352,0.669324,0.000000,0.000000,
109990424,0.174561,17.554505,1,0.923462,-0.023987,0.024841,-0.382141,0.100000,0.430000,0.680000,0.417310,0.250435,0.648410,-0.006774,0.669719,0.648640,0.000000,0.000000,
110002769,0.174042,17.563791,1,0.923096,-0.023621,0.024719,-0.383057,0.150000,0.420000,0.700000,0.446942,0.207291,0.667963,0.106495,0.809040,0.667750,0.000000,0.000000,
110011386,-0.381622,17.554505,1,0.922607,-0.023499,0.024658,-0.384277,0.170000,0.340000,0.680000,0.403498,0.135068,0.652572,-0.170077,0.395708,0.652739,0.000000,0.000000,
110020274,-0.381622,17.563791,1,0.922058,-0.023438,0.024597,-0.385559,0.270000,0.570000,0.680000,0.637155,0.224113,0.635615,-0.288923,0.242404,0.635804,0.000000,0.000000,
110032916,-0.010666,17.563791,1,0.921448,-0.023438,0.024536,-0.387024,0.230000,0.350000,0.680000,0.453138,0.096910,0.650442,-0.124285,0.450723,0.650281,0.000000,0.000000,
110041784,0.081940,17.559148,1,0.920715,-0.023560,0.024414,-0.388733,0.160000,0.370000,0.680000,0.418909,0.159643,0.651097,-0.000355,0.635845,0.651088,0.000000,0.000000,
110050644,-0.659943,17.559148,1,0.919983,-0.023621,0.024292,-0.390564,0.180000,0.390000,0.730000,0.450786,0.158899,0.699249,-0.376529,0.135776,0.698719,0.000000,0.000000,
110063034,-0.289017,17.559148,1,0.919128,-0.023682,0.024231,-0.392456,0.220000,0.330000,0.730000,0.435752,0.086902,0.701972,-0.323997,0.207915,0.701936,0.000000,0.000000,
110071610,-0.381622,17.563791,1,0.918274,-0.023743,0.024170,-0.394531,0.090000,0.400000,0.620000,0.390385,0.224920,0.591197,-0.355671,0.163334,0.592418,0.000000,0.000000,
110080489,-0.381622,17.554505,1,0.917297,-0.023804,0.024109,-0.396790,0.230000,0.370000,0.710000,0.471041,0.102804,0.679305,-0.369208,0.149854,0.678347,0.000000,0.000000,
110093228,-0.381622,17.563791,1,0.916382,-0.023865,0.023987,-0.398926,0.230000,0.330000,0.730000,0.443419,0.074124,0.701847,-0.374449,0.149858,0.701588,0.000000,0.000000,
110102075,-0.196396,17.563791,1,0.915405,-0.023926,0.023865,-0.401123,0.230000,0.370000,0.660000,0.468527,0.097615,0.629567,-0.269551,0.311284,0.630361,0.000000,0.000000,
110110939,0.081940,17.559148,1,0.914429,-0.024048,0.023743,-0.403259,0.230000,0.480000,0.730000,0.554246,0.171570,0.692505,-0.063271,0.587992,0.691820,0.000000,0.000000,
110123406,-0.381622,17.563791,1,0.913513,-0.024109,0.023682,-0.405396,0.290000,0.430000,0.790000,0.561974,0.092667,0.754120,-0.240698,0.366011,0.753433,0.000000,0.000000,
110132210,-0.288498,17.549863,1,0.912659,-0.024170,0.023560,-0.407410,0.230000,0.400000,0.730000,0.496167,0.113637,0.697650,-0.265234,0.330727,0.698264,0.000000,0.000000,
110140948,0.359772,17.563791,1,0.911804,-0.024231,0.023438,-0.409241,0.230000,0.340000,0.660000,0.447360,0.070310,0.631685,0.099382,0.814061,0.632419,0.000000,0.000000,
110153622,0.174561,17.554505,1,0.911011,-0.024292,0.023376,-0.411011,0.140000,0.730000,0.750000,0.685314,0.396283,0.698790,0.153396,0.876996,0.698059,0.000000,0.000000,
110162491,-0.010666,17.563791,1,0.910217,-0.024353,0.023315,-0.412781,0.510000,0.010000,0.660000,0.384435,-0.360677,0.646471,0.065797,0.739491,0.647039,0.000000,0.000000,
110171296,0.174042,17.563791,1,0.909424,-0.024414,0.023254,-0.414490,0.060000,0.470000,0.700000,0.436890,0.280234,0.667154,0.134997,0.828746,0.666932,0.000000,0.000000,
110308501,0.267166,17.559148,1,0.909302,-0.025452,0.023132,-0.414734,0.110000,0.400000,0.700000,0.417491,0.197752,0.669849,0.343684,1.016463,0.669817,0.000000,0.000000,
110316280,-0.007065,17.470934,1,0.909302,-0.025452,0.023132,-0.414734,0.050000,0.380000,0.680000,0.361871,0.229441,0.652463,0.069877,-0.160757,0.652655,0.000000,0.000000,
110324315,0.363373,17.480220,1,0.909668,-0.025391,0.023193,-0.414001,0.270000,0.360000,0.700000,0.492140,0.051339,0.669084,0.251496,0.278374,0.668903,0.000000,0.000000,
110335905,-0.100708,17.484863,1,0.909973,-0.025391,0.023193,-0.413269,0.350000,0.450000,0.660000,0.609707,0.049897,0.621590,0.047427,0.005666,0.622111,0.000000,0.000000,
110344222,-0.379044,17.489506,1,0.910278,-0.025330,0.023193,-0.412537,0.220000,0.420000,0.710000,0.504645,0.130170,0.676228,-0.199166,-0.241340,0.675632,0.000000,0.000000,
110352823,0.085022,17.484863,1,0.910645,-0.025330,0.023254,-0.411804,0.080000,0.300000,0.710000,0.322314,0.156926,0.687016,-0.038103,-0.110335,0.686891,0.000000,0.000000,
110365105,0.084518,17.494148,1,0.910950,-0.025391,0.023254,-0.411072,0.100000,0.340000,0.730000,0.366498,0.169457,0.703892,0.030973,-0.054385,0.703704,0.000000,0.000000,
110373962,-0.472168,17.503434,1,0.911194,-0.025330,0.023254,-0.410461,0.220000,0.470000,0.680000,0.539604,0.164611,0.642976,-0.258369,-0.275752,0.643645,0.000000,0.000000,
110382807,0.361832,17.508077,1,0.911377,-0.025330,0.023254,-0.410156,0.240000,0.420000,0.730000,0.518605,0.118218,0.695685,0.094555,-0.018778,0.695111,0.000000,0.000000,
110395278,-0.286957,17.512720,1,0.911499,-0.025330,0.023254,-0.409851,0.200000,0.420000,0.680000,0.488850,0.147130,0.646666,-0.124583,-0.158892,0.647200,0.000000,0.000000,
110403984,-0.101730,17.512720,1,0.911560,-0.025269,0.023254,-0.409729,0.220000,0.370000,0.680000,0.464755,0.099071,0.649529,-0.112814,-0.142405,0.649503,0.000000,0.000000,
110412584,-0.194336,17.517363,1,0.911560,-0.025208,0.023193,-0.409729,0.100000,0.370000,0.680000,0.385068,0.188811,0.652205,-0.160734,-0.171236,0.652176,0.000000,0.000000,
110425107,-0.194855,17.526648,1,0.911499,-0.025208,0.023193,-0.409851,0.200000,0.420000,0.710000,0.490599,0.147828,0.676725,-0.182415,-0.176475,0.676454,0.000000,0.000000,
110433892,-0.102249,17.531291,1,0.911438,-0.025208,0.023193,-0.409973,0.240000,0.440000,0.730000,0.533327,0.131553,0.694515,-0.137853,-0.130478,0.694316,0.000000,0.000000,
110442759,0.175583,17.526648,1,0.911438,-0.025208,0.023193,-0.410034,0.180000,0.390000,0.710000,0.455021,0.142735,0.679106,0.040801,0.015356,0.679274,0.000000,0.000000,
110455276,-0.010147,17.535934,1,0.911316,-0.025208,0.023132,-0.410217,0.100000,0.330000,0.660000,0.354062,0.161430,0.634882,0.011761,0.001388,0.635372,0.000000,0.000000,
110464119,-0.102249,17.531291,1,0.911255,-0.025208,0.023132,-0.410461,0.110000,0.310000,0.730000,0.350239,0.142408,0.705801,-0.053801,-0.052258,0.705025,0.000000,0.000000,
110472888,-0.102249,17.540577,1,0.911072,-0.025208,0.023132,-0.410828,0.230000,0.390000,0.700000,0.487613,0.104261,0.668104,-0.082041,-0.069185,0.668511,0.000000,0.000000,
110485246,-0.102249,17.531291,1,0.910950,-0.025208,0.023071,-0.411194,0.250000,0.390000,0.710000,0.501472,0.089178,0.677705,-0.094464,-0.069877,0.677604,0.000000,0.000000,
110494019,-0.381104,17.535934,1,0.910767,-0.025208,0.023071,-0.411560,0.230000,0.370000,0.710000,0.473357,0.090613,0.679433,-0.260053,-0.219754,0.679413,0.000000,0.000000,
110503051,-0.010147,17.535934,1,0.910522,-0.025208,0.023071,-0.412109,0.150000,0.370000,0.700000,0.420087,0.149929,0.671159,-0.118483,-0.092081,0.671250,0.000000,0.000000,
110515697,0.360291,17.545220,1,0.910156,-0.025208,0.023010,-0.412781,0.190000,0.410000,0.660000,0.474025,0.144523,0.627856,0.156022,0.142527,0.628335,0.000000,0.000000,
110524261,-0.195892,17.545220,1,0.909851,-0.025208,0.023010,-0.413513,0.200000,0.390000,0.700000,0.468306,0.124192,0.668853,-0.045499,-0.054631,0.668407,0.000000,0.000000,
110533125,-0.103271,17.549863,1,0.909546,-0.025269,0.022949,-0.414185,0.190000,0.390000,0.710000,0.462502,0.131458,0.679050,-0.079148,-0.077737,0.678933,0.000000,0.000000,
110545612,0.267166,17.549863,1,0.909241,-0.025269,0.022949,-0.414917,0.130000,0.290000,0.700000,0.347468,0.110375,0.676821,0.119343,0.098929,0.676844,0.000000,0.000000,
110554468,0.267166,17.549863,1,0.908875,-0.025269,0.022949,-0.415710,0.170000,0.370000,0.730000,0.436017,0.132587,0.700724,0.205472,0.192429,0.700461,0.000000,0.000000,
110563376,-0.103271,17.559148,1,0.908447,-0.025269,0.022888,-0.416565,0.270000,0.350000,0.680000,0.483101,0.041674,0.650132,0.029691,0.035178,0.650687,0.000000,0.000000,
110576032,0.174561,17.545220,1,0.908142,-0.025330,0.022888,-0.417297,0.380000,0.330000,0.700000,0.540890,-0.054976,0.669119,0.113682,0.117017,0.668916,0.000000,0.000000,
110584649,0.082458,17.540577,1,0.907776,-0.025330,0.022827,-0.418030,0.380000,0.210000,0.710000,0.450393,-0.133406,0.686982,0.096703,0.103670,0.686783,0.000000,0.000000,
110593537,-0.010666,17.554505,1,0.907532,-0.025391,0.022827,-0.418640,0.280000,0.190000,0.700000,0.369600,-0.071048,0.680332,0.035899,0.051678,0.680403,0.000000,0.000000,
110606130,-0.103271,17.549863,1,0.907349,-0.025452,0.022827,-0.419006,0.190000,0.200000,0.660000,0.316345,0.002681,0.641576,-0.043636,-0.012580,0.642004,0.000000,0.000000,
110614991,-0.195892,17.554505,1,0.907288,-0.025513,0.022766,-0.419128,0.200000,0.260000,0.700000,0.370852,0.035021,0.677380,-0.131619,-0.102915,0.676990,0.000000,0.000000,
110623877,-0.381622,17.554505,1,0.907410,-0.025574,0.022766,-0.418884,0.260000,0.320000,0.710000,0.455927,0.028741,0.682209,-0.276397,-0.237641,0.682151,0.000000,0.000000,
110636339,0.082458,17.549863,1,0.907593,-0.025635,0.022766,-0.418457,0.220000,0.360000,0.700000,0.459698,0.085322,0.670372,-0.072307,-0.036428,0.670502,0.000000,0.000000,
110644937,-0.195892,17.554505,1,0.907776,-0.025635,0.022766,-0.418091,0.100000,0.380000,0.750000,0.400014,0.191258,0.721327,-0.143946,-0.110190,0.720767,0.000000,0.000000,
110653779,-0.567337,17.563791,1,0.907898,-0.025635,0.022827,-0.417725,0.120000,0.420000,0.700000,0.440082,0.200946,0.668387,-0.388573,-0.344874,0.668964,0.000000,0.000000,
110666393,-0.195892,17.554505,1,0.908020,-0.025574,0.022827,-0.417480,0.220000,0.470000,0.710000,0.543464,0.157942,0.673123,-0.281685,-0.231204,0.673077,0.000000,0.000000,
110675223,0.082458,17.549863,1,0.908142,-0.025574,0.022827,-0.417236,0.220000,0.490000,0.710000,0.558521,0.171232,0.671811,-0.073276,0.017375,0.671825,0.000000,0.000000,
110684058,-0.195892,17.554505,1,0.908264,-0.025574,0.022827,-0.416931,0.190000,0.490000,0.700000,0.538238,0.194077,0.662438,-0.143721,-0.049295,0.662541,0.000000,0.000000,
110696558,-0.195892,17.554505,1,0.908386,-0.025574,0.022827,-0.416687,0.160000,0.430000,0.710000,0.473868,0.178288,0.676947,-0.174405,-0.070186,0.676788,0.000000,0.000000,
110705166,-0.010147,17.545220,1,0.908569,-0.025574,0.022827,-0.416382,0.140000,0.380000,0.700000,0.422327,0.160871,0.670647,-0.080057,0.047175,0.670714,0.000000,0.000000,
110714029,-0.010666,17.554505,1,0.908752,-0.025513,0.022827,-0.415955,0.160000,0.340000,0.660000,0.402502,0.118829,0.632988,-0.039644,0.094148,0.633404,0.000000,0.000000,
110726744,-0.289017,17.559148,1,0.908936,-0.025513,0.022827,-0.415527,0.160000,0.360000,0.700000,0.419986,0.133353,0.671586,-0.182436,-0.040042,0.671166,0.000000,0.000000,
110735522,-0.381622,17.554505,1,0.909119,-0.025513,0.022827,-0.415161,0.230000,0.360000,0.710000,0.466315,0.081025,0.680139,-0.297980,-0.173562,0.680040,0.000000,0.000000,
110744371,0.174561,17.554505,1,0.909241,-0.025513,0.022827,-0.414856,0.150000,0.320000,0.700000,0.383125,0.115318,0.674401,-0.027113,0.124051,0.674463,0.000000,0.000000,
110756832,-0.474731,17.559148,1,0.909302,-0.025452,0.022827,-0.414734,0.210000,0.410000,0.730000,0.492016,0.129759,0.697268,-0.284142,-0.130003,0.697017,0.000000,0.000000,
110765431,0.359772,17.554505,1,0.909363,-0.025452,0.022827,-0.414612,0.250000,0.420000,0.700000,0.523842,0.105403,0.665869,0.087176,0.330339,0.666212,0.000000,0.000000,
110774326,0.267166,17.559148,1,0.909363,-0.025452,0.022827,-0.414612,0.250000,0.440000,0.710000,0.539527,0.118775,0.674541,0.193887,0.447771,0.674450,0.000000,0.000000,
110787045,-0.103271,17.559148,1,0.909302,-0.025452,0.022827,-0.414734,0.190000,0.420000,0.700000,0.484569,0.150593,0.667094,0.027852,0.279316,0.667175,0.000000,0.000000,
110795915,0.174561,17.554505,1,0.909241,-0.025452,0.022827,-0.414917,0.140000,0.420000,0.700000,0.451902,0.188188,0.668114,0.115298,0.391913,0.668104,0.000000,0.000000,
110804742,-0.474731,17.559148,1,0.909119,-0.025391,0.022766,-0.415100,0.140000,0.410000,0.700000,0.444314,0.181438,0.668850,-0.221575,0.018236,0.668842,0.000000,0.000000,
110817208,-0.381622,17.563791,1,0.909058,-0.025391,0.022766,-0.415283,0.180000,0.440000,0.680000,0.491920,0.170087,0.646132,-0.313840,-0.071098,0.646382,0.000000,0.000000,
110826008,-0.381622,17.563791,1,0.908997,-0.025391,0.022766,-0.415405,0.120000,0.390000,0.680000,0.415028,0.182663,0.650604,-0.353681,-0.114898,0.650558,0.000000,0.000000,
110834866,0.081940,17.559148,1,0.908936,-0.025391,0.022766,-0.415527,0.140000,0.390000,0.710000,0.430020,0.168244,0.680129,-0.103366,0.173147,0.679803,0.000000,0.000000,
110847542,-0.103271,17.559148,1,0.908875,-0.025391,0.022766,-0.415649,0.200000,0.370000,0.680000,0.452305,0.108852,0.650284,-0.101064,0.181449,0.650609,0.000000,0.000000,
110856412,0.174042,17.563791,1,0.908813,-0.025391,0.022766,-0.415771,0.200000,0.390000,0.680000,0.467421,0.121796,0.648983,0.059955,0.393207,0.649001,0.000000,0.000000,
110865134,0.081940,17.559148,1,0.908752,-0.025391,0.022766,-0.415894,0.300000,0.410000,0.730000,0.550972,0.060389,0.695540,0.076098,0.413836,0.695027,0.000000,0.000000,
110877595,0.174561,17.554505,1,0.908691,-0.025391,0.022705,-0.416138,0.240000,0.330000,0.700000,0.449500,0.052571,0.672080,0.138263,0.483481,0.672333,0.000000,0.000000,
110886398,0.174042,17.563791,1,0.908569,-0.025391,0.022705,-0.416382,0.160000,0.370000,0.710000,0.428185,0.139316,0.681067,0.163270,0.516294,0.680971,0.000000,0.000000,
110895274,0.081940,17.559148,1,0.908386,-0.025391,0.022705,-0.416748,0.220000,0.370000,0.680000,0.465509,0.092676,0.649933,0.120936,0.468002,0.650275,0.000000,0.000000,
110907797,-0.196396,17.563791,1,0.908203,-0.025391,0.022705,-0.417114,0.200000,0.370000,0.730000,0.455673,0.108854,0.700222,-0.056800,0.275707,0.699671,0.000000,0.000000,
110916676,0.081940,17.559148,1,0.908020,-0.025452,0.022644,-0.417542,0.220000,0.350000,0.700000,0.451720,0.079553,0.671208,0.026082,0.387489,0.671522,0.000000,0.000000,
110925369,-0.289017,17.559148,1,0.907837,-0.025452,0.022644,-0.417908,0.220000,0.350000,0.710000,0.452396,0.079480,0.681189,-0.152430,0.179977,0.681082,0.000000,0.000000,
110937915,0.638657,17.549863,1,0.907776,-0.025452,0.022644,-0.418152,0.190000,0.330000,0.700000,0.417187,0.088798,0.673110,0.307730,0.691449,0.673198,0.000000,0.000000,
110946492,-0.196396,17.563791,1,0.907715,-0.025452,0.022644,-0.418213,0.220000,0.390000,0.680000,0.480900,0.104326,0.648654,0.021572,0.308720,0.648925,0.000000,0.000000,
110955535,-0.010666,17.554505,1,0.907776,-0.025452,0.022644,-0.418091,0.280000,0.350000,0.700000,0.490770,0.033417,0.670023,0.005778,0.293094,0.669790,0.000000,0.000000,
110968175,0.545517,17.554505,1,0.907837,-0.025452,0.022644,-0.417847,0.280000,0.410000,0.660000,0.533696,0.071559,0.626206,0.322143,0.652688,0.626686,0.000000,0.000000,
110977050,-0.567337,17.563791,1,0.907959,-0.025452,0.022644,-0.417664,0.190000,0.350000,0.710000,0.432858,0.102499,0.681782,-0.187940,-0.040151,0.681175,0.000000,0.000000,
110985699,-0.289017,17.559148,1,0.908020,-0.025452,0.022644,-0.417542,0.190000,0.310000,0.700000,0.401926,0.076334,0.674410,-0.246640,-0.104501,0.674484,0.000000,0.000000,
110998283,0.081940,17.559148,1,0.908020,-0.025452,0.022644,-0.417542,0.200000,0.350000,0.700000,0.438714,0.094741,0.671606,-0.057646,0.117019,0.671638,0.000000,0.000000,
111006904,0.452911,17.559148,1,0.908020,-0.025452,0.022644,-0.417542,0.220000,0.370000,0.730000,0.468734,0.093372,0.699836,0.239397,0.524858,0.699525,0.000000,0.000000,
111015863,0.081940,17.568434,1,0.907959,-0.025452,0.022644,-0.417603,0.180000,0.350000,0.710000,0.426335,0.110152,0.681981,0.153182,0.422615,0.682174,0.000000,0.000000,
111028499,0.267166,17.559148,1,0.907959,-0.025452,0.022644,-0.417725,0.160000,0.350000,0.700000,0.412757,0.124958,0.672401,0.224615,0.506523,0.672508,0.000000,0.000000,
111037369,-0.289017,17.559148,1,0.907898,-0.025452,0.022644,-0.417847,0.160000,0.350000,0.700000,0.412786,0.124853,0.672401,-0.068887,0.102047,0.672402,0.000000,0.000000,
111046030,0.174042,17.563791,1,0.907837,-0.025452,0.022644,-0.417908,0.180000,0.410000,0.700000,0.471242,0.148570,0.668097,0.072376,0.279390,0.668145,0.000000,0.000000,
111058496,0.359772,17.563791,1,0.907837,-0.025452,0.022644,-0.417908,0.240000,0.390000,0.700000,0.495071,0.089985,0.668209,0.242364,0.477419,0.668209,0.000000,0.000000,
111067024,0.359772,17.554505,1,0.907898,-0.025452,0.022644,-0.417786,0.190000,0.350000,0.680000,0.431010,0.101570,0.651853,0.314533,0.576404,0.652033,0.000000,0.000000,
111076109,0.081940,17.559148,1,0.907959,-0.025452,0.022644,-0.417664,0.200000,0.370000,0.680000,0.452634,0.107080,0.650350,0.185423,0.420909,0.650369,0.000000,0.000000,
111088572,0.174042,17.563791,1,0.908020,-0.025452,0.022644,-0.417542,0.220000,0.330000,0.730000,0.438449,0.067371,0.702441,0.184127,0.421977,0.701868,0.000000,0.000000,
111097441,-0.753067,17.563791,1,0.908020,-0.025452,0.022644,-0.417480,0.200000,0.330000,0.730000,0.425425,0.082618,0.702839,-0.355949,-0.327118,0.702828,0.000000,0.000000,
111106275,-0.474731,17.568434,1,0.908020,-0.025452,0.022644,-0.417480,0.180000,0.370000,0.700000,0.440826,0.122990,0.670701,-0.427469,-0.406090,0.671055,0.000000,0.000000,
111118821,0.081940,17.568434,1,0.908020,-0.025452,0.022644,-0.417480,0.160000,0.310000,0.680000,0.381150,0.098622,0.655053,-0.137265,-0.053406,0.655229,0.000000,0.000000,
111127601,-0.475250,17.577719,1,0.907959,-0.025452,0.022644,-0.417603,0.140000,0.330000,0.710000,0.385184,0.127533,0.684078,-0.333861,-0.322249,0.683760,0.000000,0.000000,
111136523,0.081940,17.559148,1,0.907898,-0.025452,0.022644,-0.417847,0.220000,0.330000,0.700000,0.436622,0.066270,0.672513,-0.096347,-0.018322,0.672637,0.000000,0.000000,
111149147,0.267166,17.559148,1,0.907776,-0.025452,0.022583,-0.418030,0.260000,0.370000,0.700000,0.492849,0.061709,0.669168,0.114237,0.238382,0.669207,0.000000,0.000000,
111157870,-0.010666,17.563791,1,0.907715,-0.025452,0.022583,-0.418152,0.240000,0.370000,0.700000,0.479876,0.076789,0.669564,0.043834,0.141508,0.669560,0.000000,0.000000,
111166681,-0.382126,17.573077,1,0.907715,-0.025452,0.022583,-0.418152,0.220000,0.410000,0.710000,0.497832,0.118227,0.677331,-0.201117,-0.159268,0.677246,0.000000,0.000000,
111179186,-0.103271,17.559148,1,0.907776,-0.025452,0.022583,-0.418091,0.200000,0.390000,0.700000,0.469061,0.120235,0.669049,-0.146340,-0.084173,0.669140,0.000000,0.000000,
111188052,0.266647,17.568434,1,0.907837,-0.025452,0.022583,-0.417908,0.200000,0.390000,0.700000,0.469008,0.120419,0.669049,0.092691,0.260437,0.669050,0.000000,0.000000,
111196911,0.081940,17.559148,1,0.907898,-0.025452,0.022583,-0.417786,0.180000,0.370000,0.680000,0.439587,0.122195,0.650791,0.088807,0.258384,0.650992,0.000000,0.000000,
111209406,-0.011185,17.573077,1,0.907959,-0.025452,0.022583,-0.417664,0.140000,0.330000,0.680000,0.383263,0.126698,0.654183,0.034110,0.197665,0.654148,0.000000,0.000000,
111217994,-0.196396,17.563791,1,0.908020,-0.025452,0.022583,-0.417603,0.180000,0.350000,0.680000,0.424410,0.109361,0.652091,-0.097953,0.013026,0.652113,0.000000,0.000000,
111226875,-0.474731,17.559148,1,0.908020,-0.025452,0.022583,-0.417603,0.200000,0.310000,0.700000,0.408370,0.068721,0.674253,-0.315600,-0.252161,0.674009,0.000000,0.000000,
111239420,0.452911,17.559148,1,0.907959,-0.025452,0.022583,-0.417664,0.220000,0.390000,0.710000,0.482576,0.105740,0.678629,0.126883,0.285672,0.678578,0.000000,0.000000,
111248291,-0.845673,17.568434,1,0.907898,-0.025452,0.022583,-0.417786,0.240000,0.410000,0.680000,0.508879,0.102594,0.647003,-0.435338,-0.515879,0.647351,0.000000,0.000000,
111257148,-0.010666,17.563791,1,0.907837,-0.025452,0.022583,-0.417908,0.200000,0.370000,0.700000,0.453855,0.107431,0.670351,-0.194268,-0.197637,0.670097,0.000000,0.000000,
111277679,0.545517,17.563791,1,0.907837,-0.025452,0.022583,-0.417969,0.200000,0.350000,0.700000,0.438723,0.094383,0.671652,0.234993,0.331078,0.671635,0.000000,0.000000,
111286916,1.009628,17.549863,1,0.907898,-0.025452,0.022583,-0.417847,0.190000,0.350000,0.700000,0.432204,0.102093,0.671849,0.695793,1.235459,0.671846,0.000000,0.000000,
111296692,0.359772,17.554505,1,0.907959,-0.025452,0.022583,-0.417725,0.120000,0.370000,0.680000,0.400584,0.167830,0.651975,0.511991,0.945386,0.652193,0.000000,0.000000,
111310894,-0.381622,17.554505,1,0.908020,-0.025452,0.022583,-0.417542,0.140000,0.370000,0.680000,0.413518,0.152796,0.651580,0.003632,0.250059,0.651587,0.000000,0.000000,
111319439,-0.659943,17.559148,1,0.908081,-0.025452,0.022583,-0.417419,0.180000,0.390000,0.730000,0.457753,0.136904,0.699371,-0.381242,-0.360642,0.698845,0.000000,0.000000,
111328291,0.174561,17.554505,1,0.908081,-0.025452,0.022583,-0.417358,0.190000,0.420000,0.700000,0.485069,0.148063,0.667292,-0.062613,0.065288,0.667639,0.000000,0.000000,
111340515,-0.196396,17.563791,1,0.908081,-0.025452,0.022583,-0.417358,0.200000,0.440000,0.700000,0.506712,0.153478,0.665792,-0.139343,-0.019733,0.665813,0.000000,0.000000,
111349386,-0.103271,17.549863,1,0.908081,-0.025452,0.022583,-0.417358,0.180000,0.410000,0.710000,0.471618,0.149425,0.678117,-0.118557,0.015545,0.677981,0.000000,0.000000,
111358180,-0.474731,17.559148,1,0.908081,-0.025452,0.022583,-0.417358,0.180000,0.420000,0.710000,0.479186,0.155928,0.677466,-0.324287,-0.235450,0.677472,0.000000,0.000000,
111370409,0.174042,17.563791,1,0.908081,-0.025452,0.022583,-0.417419,0.200000,0.410000,0.700000,0.484034,0.133902,0.667744,-0.038354,0.112411,0.667851,0.000000,0.000000,
111379228,0.174561,17.554505,1,0.908081,-0.025452,0.022583,-0.417480,0.200000,0.350000,0.700000,0.438638,0.094829,0.671648,0.086195,0.290462,0.671607,0.000000,0.000000,
111387815,-0.567337,17.563791,1,0.908081,-0.025391,0.022583,-0.417480,0.190000,0.330000,0.730000,0.418824,0.090163,0.703110,-0.288935,-0.174322,0.702762,0.000000,0.000000,
111400428,-0.196396,17.563791,1,0.908081,-0.025391,0.022583,-0.417480,0.160000,0.370000,0.700000,0.427728,0.138131,0.671174,-0.237453,-0.103398,0.671523,0.000000,0.000000,
111409294,-0.103271,17.559148,1,0.908081,-0.025391,0.022522,-0.417480,0.160000,0.310000,0.700000,0.382229,0.099160,0.675110,-0.160436,0.013256,0.675071,0.000000,0.000000,
111418150,-0.753067,17.563791,1,0.908020,-0.025391,0.022522,-0.417542,0.220000,0.350000,0.710000,0.452156,0.079824,0.681309,-0.503001,-0.414132,0.681241,0.000000,0.000000,
111430504,0.266647,17.568434,1,0.907959,-0.025391,0.022522,-0.417603,0.260000,0.350000,0.710000,0.478162,0.049391,0.680523,-0.061835,0.127438,0.680531,0.000000,0.000000,
111439076,0.081940,17.559148,1,0.907959,-0.025391,0.022522,-0.417725,0.280000,0.370000,0.700000,0.505719,0.046786,0.668854,0.022716,0.251633,0.668982,0.000000,0.000000,
111447954,-0.103271,17.549863,1,0.907898,-0.025452,0.022522,-0.417847,0.240000,0.310000,0.700000,0.434315,0.038155,0.673512,-0.047846,0.166834,0.673462,0.000000,0.000000,
111460672,-0.196396,17.563791,1,0.907837,-0.025452,0.022522,-0.417908,0.240000,0.330000,0.700000,0.449462,0.051094,0.672212,-0.131824,0.072724,0.672226,0.000000,0.000000,
111469502,0.174042,17.563791,1,0.907837,-0.025452,0.022522,-0.417908,0.220000,0.370000,0.700000,0.466774,0.092269,0.670003,0.046532,0.335911,0.670028,0.000000,0.000000,
111478363,0.081940,17.559148,1,0.907898,-0.025452,0.022522,-0.417847,0.190000,0.370000,0.700000,0.447280,0.115120,0.670591,0.070016,0.368062,0.670584,0.000000,0.000000,
111490773,-0.567337,17.563791,1,0.907959,-0.025452,0.022522,-0.417725,0.160000,0.330000,0.710000,0.398079,0.112310,0.683757,-0.295012,-0.069645,0.683612,0.000000,0.000000,
111499606,-0.567337,17.563791,1,0.908020,-0.025452,0.022522,-0.417603,0.190000,0.390000,0.710000,0.462993,0.128620,0.679265,-0.453746,-0.290738,0.679313,0.000000,0.000000,
111508447,0.359772,17.563791,1,0.908081,-0.025452,0.022522,-0.417419,0.220000,0.410000,0.700000,0.496969,0.118754,0.667398,0.014230,0.316165,0.667529,0.000000,0.000000,
111521055,-0.010666,17.554505,1,0.908142,-0.025391,0.022522,-0.417297,0.200000,0.440000,0.680000,0.505355,0.152955,0.645928,0.003826,0.306880,0.646166,0.000000,0.000000,
111529924,-0.103790,17.568434,1,0.908203,-0.025391,0.022522,-0.417114,0.240000,0.390000,0.710000,0.495365,0.091084,0.678315,-0.055950,0.222042,0.677961,0.000000,0.000000,
111538729,-0.196396,17.563791,1,0.908325,-0.025391,0.022522,-0.416870,0.200000,0.410000,0.660000,0.481287,0.133331,0.627920,-0.135219,0.122808,0.628471,0.000000,0.000000,
111551069,0.081940,17.559148,1,0.908447,-0.025391,0.022583,-0.416687,0.200000,0.390000,0.680000,0.467447,0.120995,0.649124,-0.007710,0.283436,0.648896,0.000000,0.000000,
111559668,-0.567337,17.563791,1,0.908508,-0.025391,0.022583,-0.416443,0.190000,0.390000,0.680000,0.460847,0.128820,0.649323,-0.330127,-0.178711,0.649318,0.000000,0.000000,
111568698,-0.289017,17.568434,1,0.908630,-0.025391,0.022583,-0.416260,0.120000,0.370000,0.700000,0.401280,0.169528,0.671967,-0.307938,-0.142540,0.671717,0.000000,0.000000,
