Code compiled on Feb 26 2026 at 14:18:31
﻿Simulation Mode (T/F),F
Airbrakes Enabled (T/F),T
Log File Name,RF
Sim File Name (if applicable),Sim
Burnout Mass (kg),0.58
Air Density (kg/m^3),1.22
Rocket CD,0.5
Airbrake CD,0.75
Rocket Area (m^2),0.00243
Kalman Model Y STD,0.1
Kalman Model V STD,0.2
Kalman Model A STD,0.5
Kalman Measurement Y STD,6
Kalman Measurement A STD,0.5
Target Apogee (m),228.6
Launch Acceleration Threshold (m/s^2),40
Coast Lockout (s),1.5
KP (1/s),0.24
Altimeter Lockout (s),60
Control Max Velocity (dep/s),2

Calibration point: 282.110182
Time (us),Altitude AGL (m),Temperature (deg C),Mode,IMU Quat W,IMU Quat X,IMU Quat Y,IMU Quat Z,IMU Raw Local Acceleration X,IMU Raw Local Acceleration Y,IMU Raw Local Acceleration Z,IMU Global Acceleration x,IMU Global Acceleration y,IMU Global Acceleration z,State Estimation y,State Estimation v,State Estimation a,Commanded servo deployment,Real servo deployment,
304950032,0.042833,16.802327,1,-0.750732,-0.333191,-0.038879,-0.569092,5.110000,2.950000,2.770000,0.559007,3.621111,-4.404563,6.297839,-1.151630,-4.536831,0.000000,0.000000,
304959936,-0.050185,16.806970,2,-0.733826,-0.333435,-0.030701,-0.591125,0.840000,2.200000,101.450000,42.951565,-45.044220,70.353299,5.893157,-0.924391,50.286549,0.000000,0.000000,
304971161,-0.515150,16.802327,2,-0.715088,-0.333557,-0.022705,-0.613892,0.190000,-6.680000,-8.350000,2.121866,3.766556,-19.584082,5.475311,-1.576516,-0.862304,0.000000,0.000000,
304980452,-0.143172,16.802327,2,-0.695923,-0.333496,-0.013672,-0.635803,14.370000,0.280000,0.360000,2.659504,12.679241,-3.568020,5.105287,-2.020734,-2.843026,0.000000,0.000000,
304991231,0.135820,16.806970,2,-0.689026,-0.332703,-0.008057,-0.643799,7.310000,8.160000,4.500000,-3.973375,4.096886,0.580802,4.768980,-2.378127,-0.336611,0.000000,0.000000,
305000501,0.228319,16.802327,2,-0.685120,-0.331360,-0.005798,-0.648621,6.220000,2.280000,4.590000,0.973860,3.368580,-2.539937,4.458733,-2.737033,-1.949558,0.000000,0.000000,
305010201,-0.050185,16.797683,2,-0.687073,-0.330139,-0.004456,-0.647217,5.130000,0.340000,5.550000,2.935109,2.069337,-3.139965,4.145905,-3.099464,-2.820997,0.000000,0.000000,
305021167,0.321825,16.788397,2,-0.690247,-0.328552,-0.003601,-0.644653,8.710000,4.340000,11.240000,2.437118,2.522427,4.652497,3.869247,-3.333182,2.649980,0.000000,0.000000,
305030511,0.135820,16.797683,2,-0.690552,-0.326843,0.000488,-0.645203,7.410000,2.720000,11.070000,3.477732,1.472574,3.257169,3.600434,-3.580732,3.094473,0.000000,0.000000,
305040413,-0.143172,16.793040,2,-0.691345,-0.324890,0.005676,-0.645264,4.790000,2.660000,7.520000,1.511728,0.711076,-0.643074,3.326257,-3.865420,0.358398,0.000000,0.000000,
305051142,0.042833,16.802327,2,-0.692261,-0.321289,0.012512,-0.646057,5.090000,3.230000,6.570000,0.538233,1.346668,-1.000089,3.075038,-4.120670,-0.636084,0.000000,0.000000,
305060670,0.414842,16.793040,2,-0.692566,-0.318115,0.018494,-0.647156,5.190000,2.750000,6.840000,0.980458,1.308865,-0.929224,2.865640,-4.329411,-0.850678,0.000000,0.000000,
305070494,0.042833,16.802327,2,-0.693481,-0.313599,0.025635,-0.648193,4.420000,3.210000,8.020000,0.732483,0.031194,-0.121128,2.642612,-4.542399,-0.316610,0.000000,0.000000,
305081557,0.507829,16.797683,2,-0.694824,-0.308350,0.033447,-0.648865,4.150000,3.580000,8.710000,0.420387,-0.560518,0.466580,2.455628,-4.697796,0.256724,0.000000,0.000000,
305090882,-0.236159,16.797683,2,-0.696594,-0.302673,0.041687,-0.649170,4.040000,3.480000,9.040000,0.411497,-0.840072,0.654727,2.239173,-4.895384,0.548082,0.000000,0.000000,
305100709,0.135820,16.788397,2,-0.698364,-0.296875,0.050110,-0.649292,3.870000,3.410000,9.330000,0.333135,-1.145754,0.800263,2.056214,-5.046285,0.732691,0.000000,0.000000,
305111708,0.228319,16.793040,2,-0.699951,-0.291077,0.058472,-0.649536,3.850000,2.890000,9.590000,0.691353,-1.307721,0.829104,1.883336,-5.175170,0.803270,0.000000,0.000000,
305121138,0.228319,16.793040,2,-0.701233,-0.285339,0.066711,-0.649963,3.690000,2.450000,9.310000,0.793097,-1.325803,0.391834,1.728100,-5.297454,0.502078,0.000000,0.000000,
305130710,0.414842,16.793040,2,-0.702026,-0.279602,0.074707,-0.650696,3.940000,2.560000,8.960000,0.430143,-0.957488,0.263823,1.592999,-5.394476,0.327663,0.000000,0.000000,
305141788,0.321825,16.788397,2,-0.702637,-0.274109,0.082336,-0.651489,3.940000,3.390000,8.900000,-0.569544,-0.944729,0.445247,1.451473,-5.485727,0.413740,0.000000,0.000000,
305151273,0.786852,16.783753,2,-0.703613,-0.268921,0.089417,-0.651611,4.210000,3.040000,8.690000,-0.421910,-0.624403,0.292730,1.356637,-5.533625,0.325154,0.000000,0.000000,
305160998,0.414842,16.793040,2,-0.705200,-0.264038,0.095947,-0.651001,4.330000,3.120000,8.710000,-0.630533,-0.531996,0.388148,1.242213,-5.601365,0.371269,0.000000,0.000000,
305171747,-0.050185,16.788397,2,-0.706787,-0.259216,0.102173,-0.650208,4.110000,2.890000,8.640000,-0.595379,-0.696049,0.150512,1.098730,-5.697668,0.209663,0.000000,0.000000,
305181340,0.135820,16.788397,2,-0.707947,-0.254333,0.108154,-0.649902,4.540000,3.190000,8.890000,-0.935892,-0.441524,0.631435,0.982031,-5.764863,0.518422,0.000000,0.000000,
305192156,-0.329176,16.793040,2,-0.708557,-0.249084,0.113953,-0.650330,4.340000,2.830000,9.400000,-0.692006,-0.874557,0.875504,0.835141,-5.855084,0.779824,0.000000,0.000000,
305201398,0.042833,16.783753,2,-0.708374,-0.243530,0.119690,-0.651611,4.630000,2.700000,8.810000,-0.784835,-0.319171,0.476241,0.729906,-5.911261,0.557586,0.000000,0.000000,
305210975,-0.143172,16.793040,2,-0.707642,-0.237610,0.125244,-0.653564,4.610000,2.220000,8.940000,-0.467889,-0.404747,0.479173,0.617043,-5.972951,0.500183,0.000000,0.000000,
305222001,0.321306,16.797683,2,-0.706543,-0.231567,0.130432,-0.655884,4.860000,2.120000,8.870000,-0.520263,-0.135824,0.517589,0.532140,-5.989634,0.512925,0.000000,0.000000,
305231622,0.228319,16.793040,2,-0.705139,-0.225281,0.135254,-0.658569,4.940000,2.180000,9.020000,-0.735793,-0.118309,0.683724,0.454936,-6.006147,0.637958,0.000000,0.000000,
305241465,-0.050185,16.788397,2,-0.703613,-0.218933,0.139648,-0.661438,4.960000,1.950000,8.980000,-0.680204,-0.050632,0.622307,0.363255,-6.038369,0.626501,0.000000,0.000000,
305252244,0.228319,16.793040,2,-0.702332,-0.212585,0.143433,-0.664001,4.880000,1.850000,9.290000,-0.711166,-0.237473,0.830561,0.289509,-6.039695,0.775883,0.000000,0.000000,
305261716,0.228838,16.783753,2,-0.701172,-0.206421,0.146790,-0.666443,4.710000,1.590000,9.940000,-0.579724,-0.661165,1.284158,0.228459,-6.032006,1.147966,0.000000,0.000000,
305271487,0.135820,16.788397,2,-0.700012,-0.200195,0.149780,-0.668884,4.800000,1.180000,9.630000,-0.330307,-0.389492,1.007988,0.163586,-6.029178,1.045495,0.000000,0.000000,
305282587,-0.050185,16.788397,2,-0.698547,-0.194275,0.152283,-0.671631,4.920000,1.070000,9.440000,-0.364533,-0.139512,0.889575,0.082903,-6.035414,0.931354,0.000000,0.000000,
305291986,0.135820,16.788397,2,-0.696899,-0.188721,0.154419,-0.674438,4.840000,1.110000,9.440000,-0.537339,-0.154405,0.849365,0.029630,-6.023434,0.871334,0.000000,0.000000,
305301813,-0.050185,16.788397,2,-0.695251,-0.183533,0.156250,-0.677185,4.670000,0.900000,9.500000,-0.449474,-0.287435,0.814557,-0.034677,-6.021471,0.829770,0.000000,0.000000,
305312604,0.135820,16.788397,2,-0.693726,-0.179016,0.157715,-0.679565,4.790000,0.970000,9.290000,-0.617956,-0.039311,0.673622,-0.088607,-6.001277,0.715462,0.000000,0.000000,
305321940,-0.050185,16.788397,2,-0.692444,-0.174988,0.158997,-0.681641,5.010000,1.200000,10.000000,-0.915478,-0.121275,1.408629,-0.142065,-5.984992,1.222895,0.000000,0.000000,
305331794,-0.236159,16.797683,2,-0.691650,-0.171570,0.160095,-0.683044,4.860000,1.220000,10.740000,-1.007585,-0.565776,1.994682,-0.206991,-5.972480,1.787882,0.000000,0.000000,
305342808,0.135820,16.788397,2,-0.690674,-0.168701,0.161072,-0.684509,4.560000,0.950000,10.650000,-0.812348,-0.758905,1.775898,-0.250524,-5.927092,1.779109,0.000000,0.000000,
305352373,-0.422163,16.788397,2,-0.689270,-0.166199,0.162048,-0.686340,4.560000,1.050000,10.020000,-0.983185,-0.450464,1.211881,-0.318274,-5.928670,1.363869,0.000000,0.000000,
305362064,0.507829,16.788397,2,-0.686829,-0.163574,0.162842,-0.689209,6.220000,1.850000,10.510000,-1.852452,0.833543,2.381444,-0.322259,-5.843230,2.108786,0.000000,0.000000,
305372920,-0.143172,16.793040,2,-0.683533,-0.160706,0.163391,-0.692993,4.560000,1.970000,11.170000,-2.033911,-0.925372,2.218921,-0.373993,-5.805706,2.189410,0.000000,0.000000,
305382316,-0.050185,16.788397,2,-0.680298,-0.157959,0.163513,-0.696777,3.690000,1.360000,8.290000,-1.462459,-0.392184,-0.755163,-0.407776,-5.789251,0.033833,0.000000,0.000000,
305392240,-0.050185,16.788397,2,-0.675781,-0.154541,0.163269,-0.701965,4.920000,0.340000,6.990000,-0.547302,1.345608,-1.371110,-0.442272,-5.775899,-0.994657,0.000000,0.000000,
305403280,0.228319,16.793040,2,-0.668152,-0.149475,0.162781,-0.710449,4.790000,1.360000,8.200000,-1.689692,0.708370,-0.380509,-0.462735,-5.729971,-0.545069,0.000000,0.000000,
305412766,-0.050185,16.788397,2,-0.663452,-0.145081,0.162048,-0.715881,4.460000,1.130000,8.520000,-1.527600,0.336232,-0.241262,-0.490437,-5.701033,-0.322667,0.000000,0.000000,
305422387,0.321825,16.788397,2,-0.657227,-0.141235,0.160767,-0.722656,4.540000,0.510000,9.400000,-1.004286,0.135121,0.604626,-0.492823,-5.634166,0.356159,0.000000,0.000000,
305433506,0.321825,16.788397,2,-0.651001,-0.137817,0.159424,-0.729248,4.690000,0.420000,9.330000,-1.015407,0.364542,0.596494,-0.502833,-5.566657,0.532097,0.000000,0.000000,
305442893,0.135820,16.788397,2,-0.644409,-0.135132,0.158142,-0.735840,4.710000,0.300000,9.480000,-0.967244,0.377762,0.743244,-0.513803,-5.511523,0.686667,0.000000,0.000000,
305452625,0.507829,16.779110,2,-0.638550,-0.133240,0.156799,-0.741516,5.280000,0.400000,8.790000,-1.203617,1.185120,0.321269,-0.501550,-5.431885,0.419178,0.000000,0.000000,
305463491,-0.143172,16.793040,2,-0.633484,-0.132324,0.155396,-0.746338,5.190000,0.170000,7.870000,-1.005982,1.527247,-0.544414,-0.537513,-5.410741,-0.286221,0.000000,0.000000,
305473011,0.879350,16.788397,2,-0.628906,-0.132080,0.154053,-0.750488,5.050000,-0.110000,7.620000,-0.728620,1.553448,-0.816682,-0.497643,-5.312382,-0.674545,0.000000,0.000000,
305482748,0.414842,16.793040,2,-0.624878,-0.132324,0.152954,-0.754089,5.440000,-0.090000,7.740000,-0.847587,1.856390,-0.563775,-0.490572,-5.249718,-0.593456,0.000000,0.000000,
305493874,0.786852,16.783753,2,-0.621033,-0.133362,0.152100,-0.757263,5.300000,-0.260000,8.200000,-0.657422,1.572293,-0.183853,-0.466571,-5.156762,-0.293606,0.000000,0.000000,
305503085,0.507829,16.788397,2,-0.617065,-0.135132,0.151611,-0.760254,4.750000,-0.840000,9.170000,0.034966,0.787358,0.536423,-0.451149,-5.078463,0.314017,0.000000,0.000000,
305512916,0.228838,16.783753,2,-0.612732,-0.137390,0.151428,-0.763367,4.770000,-0.910000,9.630000,0.118662,0.605733,0.970294,-0.457197,-5.018327,0.794445,0.000000,0.000000,
305523714,0.042833,16.783753,2,-0.608276,-0.140198,0.151489,-0.766418,5.340000,-0.590000,9.580000,-0.306669,1.024745,1.128255,-0.479076,-4.969077,1.038811,0.000000,0.000000,
305533310,0.414842,16.783753,2,-0.604736,-0.143982,0.151611,-0.768494,5.530000,-0.380000,9.440000,-0.522536,1.144845,1.080425,-0.469075,-4.892002,1.069274,0.000000,0.000000,
305543031,0.135820,16.788397,2,-0.602234,-0.148499,0.151672,-0.769592,5.360000,-0.380000,9.710000,-0.416189,0.812906,1.257587,-0.477607,-4.834807,1.207129,0.000000,0.000000,
305555068,0.414842,16.793040,2,-0.599609,-0.153076,0.151794,-0.770752,5.110000,-0.650000,9.920000,0.019125,0.435966,1.368157,-0.478119,-4.752278,1.325010,0.000000,0.000000,
305563953,-0.236159,16.788397,2,-0.595764,-0.157349,0.152100,-0.772766,4.980000,-0.820000,10.020000,0.223284,0.313401,1.414044,-0.504661,-4.721507,1.390187,0.000000,0.000000,
305573452,0.135820,16.788397,2,-0.590942,-0.161316,0.152649,-0.775513,4.800000,-0.930000,10.020000,0.401967,0.116760,1.344497,-0.508191,-4.661116,1.356740,0.000000,0.000000,
305585073,0.228838,16.783753,2,-0.585754,-0.165161,0.153259,-0.778564,4.650000,-1.030000,9.840000,0.579539,-0.030875,1.114853,-0.514762,-4.593458,1.179666,0.000000,0.000000,
305593944,0.228838,16.783753,2,-0.580566,-0.169067,0.153931,-0.781433,4.570000,-0.950000,9.820000,0.526009,-0.112849,1.056159,-0.507511,-4.528609,1.089253,0.000000,0.000000,
305603477,0.321825,16.779110,2,-0.575562,-0.173157,0.154541,-0.784119,4.500000,-0.840000,9.420000,0.436581,-0.089364,0.660838,-0.497291,-4.460873,0.775631,0.000000,0.000000,
305614503,0.600847,16.793040,2,-0.570740,-0.177307,0.155151,-0.786621,6.340000,1.010000,7.450000,-2.006196,1.715185,-0.326098,-0.475826,-4.382998,-0.030890,0.000000,0.000000,
305623760,0.507829,16.779110,2,-0.566040,-0.181458,0.155823,-0.788879,4.590000,-0.260000,8.310000,-0.181705,0.176796,-0.305160,-0.453086,-4.312943,-0.231669,0.000000,0.000000,
305633605,0.135820,16.788397,2,-0.561890,-0.185486,0.156677,-0.790771,3.180000,-2.500000,9.940000,2.584082,-1.090666,0.554734,-0.457624,-4.264090,0.344018,0.000000,0.000000,
305644367,-0.143172,16.793040,2,-0.557739,-0.188904,0.157837,-0.792664,4.230000,0.000000,10.990000,0.066838,-1.576244,1.872064,-0.483124,-4.221192,1.462626,0.000000,0.000000,
305654024,0.135820,16.788397,2,-0.552002,-0.192688,0.159180,-0.795471,4.110000,-0.570000,9.630000,0.499377,-0.926392,0.631916,-0.484058,-4.169516,0.854504,0.000000,0.000000,
305664880,-0.050185,16.797683,2,-0.547913,-0.197815,0.159912,-0.796936,3.770000,-1.130000,8.920000,1.100626,-0.761540,-0.141654,-0.501433,-4.138817,0.125266,0.000000,0.000000,
305674280,0.135820,16.788397,2,-0.545410,-0.202942,0.160706,-0.797180,4.250000,-0.780000,8.790000,0.662287,-0.502584,-0.044146,-0.499322,-4.092114,0.001248,0.000000,0.000000,
305683871,-0.608168,16.797683,2,-0.542786,-0.207947,0.161804,-0.797485,5.240000,0.030000,7.910000,-0.487485,0.350126,-0.330429,-0.545593,-4.103311,-0.241556,0.000000,0.000000,
305694954,0.414842,16.783753,2,-0.540405,-0.213318,0.162964,-0.797485,5.170000,-0.450000,7.050000,-0.097309,0.806112,-1.085082,-0.529388,-4.044498,-0.859060,0.000000,0.000000,
305704353,0.972368,16.783753,2,-0.538879,-0.218628,0.164062,-0.796814,5.320000,-0.400000,7.180000,-0.114492,0.765225,-0.893499,-0.470819,-3.941993,-0.884271,0.000000,0.000000,
305714108,0.228838,16.783753,2,-0.538269,-0.223389,0.165222,-0.795654,5.420000,-0.170000,7.510000,-0.245994,0.523079,-0.559352,-0.464328,-3.896025,-0.646414,0.000000,0.000000,
305725139,-0.143172,16.793040,2,-0.537048,-0.227539,0.166443,-0.795044,5.210000,-0.300000,7.870000,0.063309,0.158764,-0.357611,-0.486665,-3.876518,-0.434995,0.000000,0.000000,
305734511,0.042833,16.783753,2,-0.535339,-0.231079,0.167603,-0.794983,5.030000,-0.570000,8.200000,0.467824,-0.110717,-0.173025,-0.488936,-3.838996,-0.243220,0.000000,0.000000,
305744244,0.600847,16.793040,2,-0.534058,-0.234314,0.168457,-0.794678,5.090000,-0.220000,9.130000,0.333495,-0.725007,0.624225,-0.456237,-3.752949,0.391794,0.000000,0.000000,
305755330,-0.050185,16.788397,2,-0.532654,-0.237244,0.169006,-0.794617,5.170000,-0.450000,9.250000,0.589459,-0.688287,0.764841,-0.471679,-3.714878,0.664884,0.000000,0.000000,
305764789,0.507829,16.788397,2,-0.531067,-0.239990,0.169312,-0.794800,5.000000,-0.220000,8.060000,0.224326,-0.324968,-0.320895,-0.443878,-3.646094,-0.056756,0.000000,0.000000,
305774557,0.228838,16.783753,2,-0.529175,-0.242493,0.169434,-0.795288,5.210000,-0.090000,8.520000,0.167415,-0.488359,0.167898,-0.436264,-3.595119,0.107702,0.000000,0.000000,
305785377,-0.050185,16.788397,2,-0.527466,-0.245056,0.169189,-0.795715,4.770000,-0.320000,8.520000,0.559070,-0.762963,-0.074000,-0.450361,-3.567617,-0.025313,0.000000,0.000000,
305794740,0.135820,16.788397,2,-0.525879,-0.247681,0.168701,-0.796021,4.960000,-0.110000,8.140000,0.266019,-0.519646,-0.283558,-0.446115,-3.527270,-0.214362,0.000000,0.000000,
305804464,0.321825,16.788397,2,-0.524536,-0.250488,0.168030,-0.796143,5.210000,0.220000,8.140000,-0.072946,-0.488809,-0.150379,-0.431129,-3.472567,-0.167523,0.000000,0.000000,
305815351,-0.050185,16.788397,2,-0.523621,-0.253601,0.167175,-0.795959,5.210000,-0.070000,8.140000,0.247160,-0.396490,-0.143881,-0.444479,-3.446344,-0.150216,0.000000,0.000000,
305824976,-0.050185,16.788397,2,-0.522644,-0.256714,0.166260,-0.795776,5.150000,0.000000,8.080000,0.233552,-0.464689,-0.236815,-0.452333,-3.419729,-0.213611,0.000000,0.000000,
305834844,-0.050185,16.788397,2,-0.521240,-0.259766,0.165405,-0.795898,5.320000,-0.070000,8.060000,0.292200,-0.320216,-0.149901,-0.460269,-3.391811,-0.166972,0.000000,0.000000,
305845588,0.693864,16.779110,2,-0.519958,-0.262939,0.164429,-0.795898,5.110000,-0.150000,7.720000,0.403223,-0.284221,-0.559563,-0.422630,-3.313483,-0.454368,0.000000,0.000000,
305855052,0.414842,16.783753,2,-0.518860,-0.266113,0.163269,-0.795837,5.670000,0.280000,7.390000,-0.200923,0.111472,-0.483430,-0.400222,-3.256688,-0.475642,0.000000,0.000000,
305864813,-0.050185,16.788397,2,-0.518066,-0.269165,0.161926,-0.795593,5.420000,0.110000,7.520000,0.124574,-0.084845,-0.533191,-0.409580,-3.236345,-0.517771,0.000000,0.000000,
305875900,-0.236159,16.788397,2,-0.517395,-0.272339,0.160522,-0.795227,5.780000,0.220000,7.980000,0.102266,-0.124863,0.057025,-0.434304,-3.223288,-0.096991,0.000000,0.000000,
305885406,0.693864,16.788397,2,-0.517090,-0.275391,0.158875,-0.794678,5.460000,0.110000,8.210000,0.426434,-0.449718,0.039818,-0.392463,-3.140180,0.003161,0.000000,0.000000,
305895101,-0.422163,16.788397,2,-0.516602,-0.278259,0.157288,-0.794312,5.420000,0.130000,8.900000,0.672053,-0.861837,0.564297,-0.424767,-3.136858,0.413941,0.000000,0.000000,
305905966,0.600847,16.783753,2,-0.516235,-0.280884,0.155640,-0.793945,5.280000,0.070000,8.620000,0.761210,-0.788041,0.251330,-0.392998,-3.059397,0.294902,0.000000,0.000000,
305915401,0.042833,16.793040,2,-0.516357,-0.283386,0.153809,-0.793335,5.550000,0.590000,7.660000,-0.012365,-0.296822,-0.322851,-0.393918,-3.030739,-0.157324,0.000000,0.000000,
305925158,0.228838,16.783753,2,-0.517334,-0.286133,0.151794,-0.792114,5.780000,0.970000,7.310000,-0.456960,-0.095847,-0.437948,-0.383579,-2.989641,-0.362755,0.000000,0.000000,
305936146,-0.050185,16.788397,2,-0.519165,-0.289062,0.149597,-0.790283,5.690000,0.950000,7.100000,-0.395197,-0.032231,-0.657406,-0.395082,-2.972527,-0.578455,0.000000,0.000000,
305945673,-0.050185,16.788397,2,-0.521606,-0.292114,0.147339,-0.787964,5.820000,1.050000,7.300000,-0.374372,-0.072642,-0.412516,-0.401269,-2.951189,-0.456979,0.000000,0.000000,
305955419,0.600847,16.783753,2,-0.524170,-0.294983,0.145447,-0.785583,5.740000,0.900000,7.890000,0.045489,-0.371792,-0.005176,-0.365743,-2.878234,-0.126236,0.000000,0.000000,
305966107,0.414842,16.783753,2,-0.526428,-0.297607,0.143860,-0.783325,5.630000,0.950000,8.120000,0.175675,-0.594622,0.107953,-0.346410,-2.820400,0.045203,0.000000,0.000000,
305975566,0.414842,16.783753,2,-0.528748,-0.299988,0.142517,-0.781128,6.110000,1.130000,8.040000,-0.074684,-0.270397,0.356395,-0.324219,-2.761404,0.273011,0.000000,0.000000,
305985496,0.414842,16.783753,2,-0.531128,-0.302246,0.141235,-0.778870,6.070000,1.320000,7.980000,-0.183185,-0.332879,0.307004,-0.304248,-2.704651,0.297895,0.000000,0.000000,
305996487,0.693864,16.779110,2,-0.533752,-0.304260,0.139893,-0.776550,6.220000,1.370000,7.910000,-0.224192,-0.196528,0.355726,-0.269910,-2.628289,0.340230,0.000000,0.000000,
306006031,0.321825,16.788397,2,-0.536621,-0.305725,0.138489,-0.774231,6.220000,1.280000,7.870000,-0.093186,-0.127953,0.310886,-0.256998,-2.582120,0.318749,0.000000,0.000000,
306015738,0.786852,16.774467,2,-0.539429,-0.306702,0.137146,-0.772095,6.430000,1.530000,8.020000,-0.277461,-0.119481,0.588330,-0.215094,-2.500452,0.516096,0.000000,0.000000,
306026937,-0.050185,16.788397,2,-0.542175,-0.307251,0.135742,-0.770203,6.490000,1.570000,8.200000,-0.223313,-0.157645,0.771412,-0.232456,-2.479944,0.703000,0.000000,0.000000,
306036319,0.414842,16.783753,2,-0.544861,-0.307495,0.134277,-0.768494,6.530000,1.490000,8.580000,0.009327,-0.266428,1.087588,-0.214099,-2.422281,0.984538,0.000000,0.000000,
306047129,0.042833,16.783753,2,-0.547302,-0.307434,0.132874,-0.767029,6.490000,1.530000,8.670000,0.043843,-0.328817,1.131980,-0.223717,-2.391395,1.092473,0.000000,0.000000,
306056354,0.042833,16.783753,2,-0.549377,-0.307190,0.131470,-0.765808,6.590000,1.600000,8.710000,-0.006543,-0.264452,1.235507,-0.228609,-2.360473,1.197181,0.000000,0.000000,
306066188,0.507829,16.779110,2,-0.551208,-0.306885,0.130127,-0.764893,5.930000,1.990000,8.870000,-0.157716,-0.958637,1.010915,-0.204567,-2.297020,1.060825,0.000000,0.000000,
306076980,0.042833,16.783753,2,-0.552856,-0.306641,0.128662,-0.764038,7.180000,-0.490000,8.180000,1.677316,1.285271,0.887443,-0.213441,-2.269450,0.933901,0.000000,0.000000,
306086469,-0.143172,16.793040,2,-0.554199,-0.306274,0.127197,-0.763428,6.680000,1.600000,9.130000,0.177812,-0.305625,1.626605,-0.230369,-2.248707,1.440996,0.000000,0.000000,
306096206,0.600847,16.783753,2,-0.554932,-0.304871,0.126038,-0.763672,6.870000,1.550000,8.730000,0.048102,0.119485,1.415976,-0.198930,-2.174596,1.422680,0.000000,0.000000,
306107297,0.414842,16.783753,2,-0.555786,-0.304321,0.124573,-0.763489,7.080000,1.430000,8.980000,0.212242,0.224215,1.721603,-0.183568,-2.111161,1.641507,0.000000,0.000000,
306116635,-0.329176,16.783753,2,-0.557068,-0.304565,0.122803,-0.762756,7.070000,1.620000,9.250000,0.162536,0.047532,1.952992,-0.212527,-2.103421,1.869530,0.000000,0.000000,
306126541,0.693864,16.779110,2,-0.557800,-0.305481,0.121338,-0.762085,7.350000,1.470000,9.130000,0.246215,0.388127,2.006302,-0.175172,-2.017815,1.969654,0.000000,0.000000,
306136956,0.042833,16.783753,2,-0.558350,-0.306885,0.119934,-0.761353,7.330000,1.590000,9.100000,0.178157,0.356649,1.990078,-0.182105,-1.981296,1.984606,0.000000,0.000000,
306146682,0.042833,16.783753,2,-0.558655,-0.308472,0.118530,-0.760681,7.300000,1.620000,8.900000,0.148960,0.433048,1.813242,-0.186876,-1.947352,1.859159,0.000000,0.000000,
306156320,-0.329176,16.783753,2,-0.558838,-0.310486,0.117065,-0.760010,7.390000,1.590000,8.580000,0.105661,0.677006,1.614979,-0.214692,-1.942111,1.680407,0.000000,0.000000,
306167352,0.507829,16.788397,2,-0.558838,-0.312866,0.115784,-0.759216,7.330000,1.550000,8.370000,0.144115,0.752481,1.409292,-0.189735,-1.874257,1.481937,0.000000,0.000000,
306176886,-0.515150,16.783753,2,-0.558655,-0.315552,0.114746,-0.758423,7.370000,1.590000,8.270000,0.134490,0.798293,1.359839,-0.228413,-1.884989,1.392555,0.000000,0.000000,
306186768,-0.515150,16.783753,2,-0.558472,-0.318542,0.113953,-0.757385,7.280000,1.570000,8.430000,0.285935,0.622698,1.423286,-0.265340,-1.891699,1.415051,0.000000,0.000000,
306197536,-0.050185,16.788397,2,-0.558228,-0.321899,0.113464,-0.756226,7.560000,1.600000,8.230000,0.213160,0.902659,1.450492,-0.271832,-1.860518,1.440996,0.000000,0.000000,
306207074,0.135820,16.788397,2,-0.557983,-0.325378,0.113220,-0.754944,7.490000,1.590000,8.140000,0.271850,0.851241,1.344623,-0.263382,-1.818087,1.370446,0.000000,0.000000,
306216822,0.042833,16.783753,2,-0.557800,-0.328918,0.113342,-0.753540,7.490000,1.600000,7.870000,0.231083,0.940897,1.135520,-0.261445,-1.784842,1.198468,0.000000,0.000000,
306227918,0.321825,16.788397,2,-0.557800,-0.332458,0.113708,-0.751892,7.280000,1.600000,7.600000,0.232812,0.877465,0.808266,-0.243820,-1.733569,0.912821,0.000000,0.000000,
306237216,-0.143172,16.793040,2,-0.557983,-0.336121,0.114380,-0.750061,7.120000,1.570000,7.510000,0.310882,0.756016,0.636777,-0.253468,-1.720431,0.710743,0.000000,0.000000,
306247126,0.414842,16.783753,2,-0.558228,-0.339844,0.115417,-0.748047,7.120000,1.550000,6.990000,0.191022,0.990579,0.248364,-0.227711,-1.669563,0.372258,0.000000,0.000000,
306257881,0.228838,16.783753,2,-0.558594,-0.343628,0.116821,-0.745850,6.570000,1.570000,7.220000,0.400732,0.370698,0.073013,-0.216410,-1.635687,0.153195,0.000000,0.000000,
306267400,0.136339,16.779110,2,-0.558960,-0.347534,0.118530,-0.743469,5.650000,1.570000,6.850000,0.441629,-0.179541,-0.795644,-0.209438,-1.617889,-0.541403,0.000000,0.000000,
306277194,0.414842,16.783753,2,-0.559448,-0.351379,0.120422,-0.740967,5.930000,2.520000,5.840000,-0.807824,0.210561,-1.143320,-0.185376,-1.583904,-0.982037,0.000000,0.000000,
306288295,0.321825,16.788397,2,-0.559998,-0.355164,0.122620,-0.738403,6.590000,0.130000,6.490000,1.597946,1.068674,-0.752570,-0.170485,-1.555693,-0.814055,0.000000,0.000000,
306297569,0.321825,16.788397,2,-0.560547,-0.359253,0.125122,-0.735596,6.110000,1.010000,7.470000,1.281424,-0.238015,-0.178992,-0.153329,-1.521301,-0.349157,0.000000,0.000000,
306307435,0.136339,16.779110,2,-0.562073,-0.363281,0.127686,-0.731995,5.460000,1.490000,8.940000,1.539574,-1.839107,0.508041,-0.149733,-1.495380,0.278356,0.000000,0.000000,
306318434,0.136339,16.779110,2,-0.565491,-0.366333,0.130493,-0.727295,6.180000,1.740000,8.770000,1.211011,-1.372071,0.909567,-0.147767,-1.464907,0.740435,0.000000,0.000000,
306327894,-0.329176,16.783753,2,-0.570007,-0.368530,0.132629,-0.722229,5.720000,1.570000,7.810000,1.082734,-1.124070,-0.115932,-0.173296,-1.479467,0.113531,0.000000,0.000000,
306337594,-0.050185,16.788397,2,-0.573975,-0.369934,0.134949,-0.717957,6.050000,2.330000,7.240000,0.161054,-0.803478,-0.112390,-0.179775,-1.471651,-0.051854,0.000000,0.000000,
306348691,-0.329176,16.783753,2,-0.577393,-0.370911,0.137512,-0.714233,5.280000,2.350000,7.740000,0.385978,-1.717116,-0.299834,-0.205709,-1.485676,-0.233388,0.000000,0.000000,
306358167,0.043352,16.774467,2,-0.580811,-0.372192,0.139709,-0.710388,4.920000,4.710000,11.840000,-0.275358,-5.269742,2.802687,-0.203571,-1.440002,1.989173,0.000000,0.000000,
306367881,-0.329176,16.774467,2,-0.583679,-0.373474,0.141541,-0.706909,4.100000,3.850000,16.240000,2.144589,-8.451571,5.015234,-0.225266,-1.400305,4.204403,0.000000,0.000000,
306379608,-0.050185,16.788397,2,-0.584290,-0.374512,0.143616,-0.705505,3.460000,2.910000,13.220000,1.885821,-6.831846,2.264301,-0.230363,-1.360067,2.784150,0.000000,0.000000,
306388590,0.043352,16.774467,2,-0.581726,-0.374817,0.145630,-0.707031,6.180000,0.450000,8.640000,2.430223,-1.263068,0.477080,-0.225086,-1.337168,1.095257,0.000000,0.000000,
306398176,0.042833,16.783753,2,-0.575500,-0.372559,0.149536,-0.712463,3.690000,1.800000,10.250000,1.775628,-4.494062,0.129987,-0.220764,-1.316507,0.388631,0.000000,0.000000,
306409940,-0.236159,16.788397,2,-0.564941,-0.366943,0.156128,-0.722351,10.110000,3.710000,6.180000,-2.518897,1.893449,2.262859,-0.237024,-1.292098,1.760661,0.000000,0.000000,
306418809,0.042833,16.783753,2,-0.550415,-0.360046,0.162903,-0.735474,4.790000,6.280000,6.490000,-4.199097,-2.956703,-0.958760,-0.230670,-1.281853,-0.230093,0.000000,0.000000,
306428265,0.136339,16.779110,2,-0.530640,-0.352905,0.170471,-0.751526,8.460000,3.120000,9.610000,-1.102300,-1.515596,3.246656,-0.219028,-1.224563,2.315064,0.000000,0.000000,
306438995,0.414842,16.783753,2,-0.508545,-0.344238,0.176941,-0.769165,5.240000,-1.050000,10.050000,3.172055,-2.354007,0.879901,-0.191560,-1.168922,1.264452,0.000000,0.000000,
306448445,0.507829,16.788397,2,-0.485596,-0.334534,0.183594,-0.786499,5.800000,-1.530000,-11.950000,-4.573629,11.760270,-14.238437,-0.159008,-1.256697,-10.084451,0.000000,0.000000,
306458261,-0.793105,16.788397,2,-0.462891,-0.324768,0.189270,-0.802795,9.420000,-4.110000,1.220000,0.588372,7.158605,-2.350593,-0.211781,-1.325765,-4.422874,0.000000,0.000000,
306469344,0.321306,16.797683,3,-0.441467,-0.315308,0.193359,-0.817505,7.520000,0.090000,8.460000,-0.242650,-0.563748,1.498512,-0.192041,-1.272826,-0.088118,0.000000,0.000000,
306478783,0.414842,16.783753,4,-0.425110,-0.307922,0.194946,-0.828552,4.820000,-1.180000,10.440000,2.402645,-2.620493,1.198035,-0.165060,-1.217069,0.853411,0.000000,0.000000,
306488486,-0.143172,16.793040,4,-0.417542,-0.303406,0.192688,-0.834534,6.470000,-2.520000,14.960000,4.203275,-3.388955,5.783369,-0.175030,-1.159273,4.462391,0.000000,0.000000,
306501797,0.135820,16.788397,4,-0.414307,-0.301941,0.187866,-0.837769,6.050000,0.680000,11.470000,0.590541,-3.281335,2.729588,-0.170310,-1.098872,3.193891,0.000000,0.000000,
306513465,0.414842,16.783753,4,-0.410522,-0.301147,0.182800,-0.841064,7.720000,-1.640000,7.700000,0.327541,1.254975,1.156428,-0.145374,-1.042727,1.702365,0.000000,0.000000,
306524457,0.136339,16.779110,4,-0.399231,-0.299805,0.174805,-0.848633,6.260000,-2.160000,6.490000,0.946187,1.449912,-0.687831,-0.138760,-1.029949,-0.047380,0.000000,0.000000,
306535825,0.414842,16.774467,4,-0.390442,-0.299133,0.172424,-0.853455,6.390000,-2.620000,7.720000,1.623908,1.192710,0.366447,-0.114530,-0.984632,0.255563,0.000000,0.000000,
306547263,0.321825,16.779110,4,-0.381104,-0.299622,0.169250,-0.858093,9.500000,2.330000,9.770000,-3.027211,-1.330679,3.623986,-0.097048,-0.910671,2.721420,0.000000,0.000000,
306558699,0.414842,16.774467,4,-0.372803,-0.300049,0.166321,-0.862183,10.170000,0.700000,7.070000,-3.246649,1.453363,2.091286,-0.074016,-0.848290,2.260130,0.000000,0.000000,
306572579,-0.143172,16.774467,4,-0.364380,-0.300110,0.163940,-0.866211,7.120000,-1.740000,5.590000,-0.474444,2.162270,-0.852456,-0.090536,-0.863287,-0.018441,0.000000,0.000000,
306584002,0.228838,16.774467,4,-0.354614,-0.300171,0.161743,-0.870605,6.180000,-0.970000,6.620000,-0.173943,0.608171,-0.714385,-0.079488,-0.847239,-0.527908,0.000000,0.000000,
306595947,0.414842,16.774467,4,-0.333374,-0.298462,0.159485,-0.879944,5.170000,-3.140000,7.620000,2.232247,1.170511,-0.406846,-0.057071,-0.814034,-0.439284,0.000000,0.000000,
306607381,0.600847,16.774467,4,-0.321838,-0.296753,0.159607,-0.884827,7.140000,-1.180000,8.710000,0.063574,0.145489,1.529259,-0.022768,-0.745387,1.001790,0.000000,0.000000,
306618853,0.507829,16.769823,4,-0.310181,-0.294617,0.160461,-0.889526,4.110000,-3.100000,7.700000,2.672117,0.621773,-0.946455,0.003577,-0.715183,-0.424424,0.000000,0.000000,
306632708,0.321825,16.769823,4,-0.298889,-0.292419,0.161865,-0.893860,5.150000,-2.290000,7.980000,1.392423,0.261122,-0.144170,0.014770,-0.692675,-0.219264,0.000000,0.000000,
306645903,0.228838,16.765180,4,-0.278381,-0.288269,0.166260,-0.900940,4.520000,-2.390000,8.200000,1.863130,-0.049490,-0.318740,0.019870,-0.680040,-0.292086,0.000000,0.000000,
306656539,-0.049666,16.769823,4,-0.267761,-0.286438,0.169495,-0.904175,7.100000,-1.820000,8.210000,-0.355673,0.430290,1.194469,0.008150,-0.671839,0.796148,0.000000,0.000000,
306668981,0.693864,16.760536,4,-0.256836,-0.284729,0.173279,-0.907166,3.730000,-2.540000,9.480000,2.856590,-0.937642,0.265715,0.045587,-0.614275,0.407844,0.000000,0.000000,
306681462,0.228838,16.765180,4,-0.246338,-0.283081,0.177734,-0.909729,7.430000,-1.110000,7.430000,-1.601113,-0.038387,0.652468,0.050253,-0.591639,0.586922,0.000000,0.000000,
306693109,0.043352,16.765180,4,-0.239441,-0.282654,0.181030,-0.911072,6.720000,-5.090000,8.270000,1.361931,2.484990,1.642725,0.043066,-0.572848,1.359823,0.000000,0.000000,
306705576,0.972368,16.765180,4,-0.227783,-0.281982,0.187927,-0.912842,5.920000,-2.540000,11.990000,2.105760,-1.718061,3.538759,0.098677,-0.455315,2.954915,0.000000,0.000000,
306716069,0.414842,16.765180,4,-0.223389,-0.282166,0.190674,-0.913330,5.210000,-1.740000,12.810000,2.546399,-3.061790,3.557348,0.115338,-0.392520,3.395927,0.000000,0.000000,
306727215,0.321825,16.769823,4,-0.219910,-0.282227,0.192871,-0.913635,4.210000,-6.200000,9.520000,4.135786,1.843052,1.443716,0.124796,-0.360024,1.966809,0.000000,0.000000,
306739685,-0.049666,16.769823,4,-0.214905,-0.281128,0.196289,-0.914490,8.270000,4.480000,10.990000,-3.734897,-6.650073,2.489920,0.108834,-0.342892,2.349753,0.000000,0.000000,
306752260,0.414842,16.755893,4,-0.209045,-0.279236,0.200317,-0.915527,5.230000,-5.320000,12.680000,4.007225,-0.377206,4.326164,0.125506,-0.264597,3.796586,0.000000,0.000000,
306763684,0.507829,16.760536,4,-0.203735,-0.276672,0.204590,-0.916565,5.420000,-1.130000,7.810000,-0.352680,-1.521768,-0.344350,0.147926,-0.239381,0.765210,0.000000,0.000000,
306776286,0.228838,16.765180,4,-0.188660,-0.271667,0.210815,-0.919861,7.220000,-0.490000,6.840000,-2.533704,-1.259827,-0.252739,0.150279,-0.235931,0.020020,0.000000,0.000000,
306789113,0.228838,16.765180,4,-0.177612,-0.267944,0.214783,-0.922241,3.900000,-4.790000,8.310000,2.497981,0.792117,0.216240,0.152573,-0.226965,0.163663,0.000000,0.000000,
306800686,-0.236159,16.769823,4,-0.166931,-0.263733,0.218628,-0.924561,4.730000,-3.180000,9.590000,1.512574,-1.108001,1.198655,0.123876,-0.243666,0.921330,0.000000,0.000000,
306814183,0.136339,16.760536,4,-0.157166,-0.260010,0.221558,-0.926636,3.080000,-1.260000,10.710000,2.287984,-3.722944,0.527188,0.121458,-0.235391,0.632798,0.000000,0.000000,
306825852,1.065385,16.751250,4,-0.148621,-0.256226,0.224243,-0.928406,9.590000,-2.640000,5.920000,-4.541818,0.838368,0.847757,0.182601,-0.150183,0.790159,0.000000,0.000000,
306836345,0.136339,16.760536,4,-0.135437,-0.250854,0.227661,-0.931091,1.830000,-7.180000,13.140000,6.424390,-0.039605,3.849143,0.178271,-0.112209,3.029491,0.000000,0.000000,
306848336,-0.049666,16.769823,4,-0.128662,-0.248718,0.229370,-0.932190,7.700000,-2.890000,6.820000,-2.712025,0.110992,0.534422,0.161509,-0.122993,1.202974,0.000000,0.000000,
306859761,0.600847,16.765180,5,-0.123108,-0.247864,0.229736,-0.933105,6.740000,-3.390000,5.610000,-2.261299,0.964716,-0.725214,0.189535,-0.096906,-0.208557,0.000000,0.000000,
306872055,0.414842,16.755893,5,-0.118591,-0.246826,0.231506,-0.933472,5.260000,-6.380000,6.800000,0.426098,2.747138,0.538742,0.203579,-0.072822,0.338503,0.000000,0.000000,
306882250,0.321825,16.760536,5,-0.113037,-0.244934,0.235657,-0.933655,5.590000,-5.000000,8.230000,0.118315,0.670566,1.306178,0.210895,-0.049766,1.046891,0.000000,0.000000,
306891363,0.321825,16.760536,5,-0.106995,-0.243347,0.239868,-0.933716,5.860000,-4.270000,7.910000,-0.488156,0.210966,0.916170,0.217887,-0.032884,0.951197,0.000000,0.000000,
306901001,0.043352,16.765180,5,-0.100952,-0.242188,0.242249,-0.934082,7.220000,-7.410000,7.180000,-1.062713,3.308723,2.309900,0.206123,-0.023960,1.945836,0.000000,0.000000,
306911914,0.228838,16.755893,5,-0.095825,-0.241577,0.243469,-0.934448,4.520000,-3.620000,5.820000,-0.477427,0.487096,-1.611739,0.207157,-0.038590,-0.658489,0.000000,0.000000,
306921392,0.043352,16.765180,5,-0.091370,-0.241699,0.244141,-0.934692,5.230000,-5.320000,7.100000,-0.109730,1.320845,0.413390,0.196031,-0.046649,0.126181,0.000000,0.000000,
306931026,0.507829,16.760536,5,-0.086853,-0.240784,0.245544,-0.934998,5.030000,-4.920000,6.070000,-0.515589,1.432680,-0.631505,0.216032,-0.029642,-0.428484,0.000000,0.000000,
306942071,0.321825,16.769823,5,-0.082275,-0.240417,0.246277,-0.935303,3.770000,-3.870000,4.690000,-0.312739,1.142844,-2.739273,0.222405,-0.051275,-2.120099,0.000000,0.000000,
306951523,0.507829,16.769823,5,-0.077515,-0.240173,0.247253,-0.935486,4.840000,-4.690000,3.080000,-1.719583,2.645994,-3.096329,0.240431,-0.059931,-2.834749,0.000000,0.000000,
306961281,0.693864,16.760536,5,-0.073059,-0.239441,0.248596,-0.935730,3.730000,-5.240000,5.950000,0.529820,1.634129,-1.208797,0.269424,-0.038806,-1.644469,0.000000,0.000000,
306972018,0.507829,16.779110,5,-0.071350,-0.240112,0.249146,-0.935486,3.980000,-4.190000,8.640000,1.155465,-0.640772,0.514480,0.284632,-0.016673,-0.064008,0.000000,0.000000,
306981463,0.228838,16.774467,5,-0.070557,-0.240723,0.249451,-0.935303,4.880000,-4.000000,8.500000,0.274619,-0.736917,0.759656,0.280914,-0.013287,0.538956,0.000000,0.000000,
306991149,0.507829,16.769823,5,-0.069458,-0.241394,0.250244,-0.935059,8.440000,-7.220000,9.940000,-1.428054,1.335625,4.978304,0.295865,0.051153,3.788784,0.000000,0.000000,
307002204,0.043352,16.774467,5,-0.068359,-0.241760,0.251709,-0.934631,4.770000,-5.230000,8.600000,0.725101,0.221590,1.320551,0.280092,0.048758,1.981912,0.000000,0.000000,
307011758,-0.050185,16.779110,5,-0.067200,-0.242188,0.253601,-0.934082,6.840000,-4.690000,7.720000,-1.578487,0.157570,1.419209,0.259253,0.038690,1.569984,0.000000,0.000000,
307021541,0.228838,16.774467,5,-0.066528,-0.241943,0.255615,-0.933655,6.800000,-4.440000,6.910000,-1.955507,0.304314,0.680596,0.257673,0.043187,0.918907,0.000000,0.000000,
307032311,0.693864,16.779110,5,-0.065796,-0.241333,0.257812,-0.933228,6.220000,-4.400000,6.840000,-1.511233,0.264320,0.326555,0.286235,0.077477,0.485275,0.000000,0.000000,
307041822,0.042833,16.783753,5,-0.065063,-0.240051,0.260010,-0.933044,6.610000,-5.010000,6.930000,-1.692343,0.690026,0.849998,0.271363,0.068549,0.752271,0.000000,0.000000,
307051514,0.507829,16.779110,5,-0.064697,-0.238220,0.262146,-0.932922,6.450000,-5.110000,6.490000,-1.742206,0.964191,0.489431,0.287222,0.089808,0.559859,0.000000,0.000000,
307062541,0.600847,16.774467,5,-0.064758,-0.235779,0.264221,-0.932922,5.360000,-5.000000,6.660000,-0.785553,0.753708,0.044550,0.308323,0.112296,0.182627,0.000000,0.000000,
307072073,0.228838,16.783753,5,-0.065247,-0.232849,0.266174,-0.933105,5.210000,-4.650000,6.910000,-0.694932,0.298581,-0.006372,0.304288,0.106627,0.044270,0.000000,0.000000,
307081933,0.321825,16.779110,5,-0.065857,-0.229553,0.267944,-0.933350,5.110000,-4.520000,7.660000,-0.406658,-0.226981,0.452077,0.306498,0.112299,0.342806,0.000000,0.000000,
307092655,0.600847,16.774467,5,-0.066406,-0.226074,0.269531,-0.933716,3.830000,-4.750000,7.330000,0.598295,0.112967,-0.280300,0.326503,0.129829,-0.113339,0.000000,0.000000,
307102119,-0.050185,16.779110,5,-0.066956,-0.222473,0.270996,-0.934143,3.690000,-4.800000,7.850000,0.866612,-0.140191,0.074417,0.303652,0.104421,0.024108,0.000000,0.000000,
307111859,0.786852,16.774467,5,-0.067566,-0.218994,0.272339,-0.934509,3.420000,-4.460000,7.970000,0.999871,-0.510474,-0.115642,0.335508,0.136689,-0.078196,0.000000,0.000000,
307123524,0.321825,16.779110,5,-0.068237,-0.215820,0.273499,-0.934875,3.120000,-4.860000,8.140000,1.321707,-0.294015,0.088487,0.336239,0.136692,0.043824,0.000000,0.000000,
307132670,0.507829,16.779110,5,-0.068787,-0.212952,0.274536,-0.935181,3.000000,-4.960000,8.500000,1.582622,-0.410909,0.364380,0.348482,0.152128,0.278488,0.000000,0.000000,
307142284,0.414842,16.774467,5,-0.069275,-0.210571,0.275452,-0.935425,2.950000,-5.210000,8.710000,1.716655,-0.331501,0.630324,0.354217,0.162777,0.536050,0.000000,0.000000,
307153814,-0.236159,16.779110,5,-0.069580,-0.208618,0.276184,-0.935608,2.870000,-5.110000,8.850000,1.775065,-0.507605,0.655217,0.318472,0.129632,0.623286,0.000000,0.000000,
307162824,0.414842,16.774467,5,-0.069702,-0.207214,0.276672,-0.935791,3.330000,-5.050000,8.500000,1.195778,-0.364299,0.556162,0.325809,0.141298,0.574148,0.000000,0.000000,
307172419,0.321825,16.788397,5,-0.069580,-0.206299,0.276917,-0.935913,3.770000,-4.730000,8.460000,0.683546,-0.611872,0.561612,0.326936,0.146412,0.564971,0.000000,0.000000,
307183387,-0.329176,16.783753,5,-0.069275,-0.205688,0.276978,-0.936035,3.560000,-5.130000,8.410000,0.940681,-0.247298,0.628113,0.286802,0.108193,0.611194,0.000000,0.000000,
307192843,-0.050185,16.779110,5,-0.068909,-0.205383,0.277100,-0.936096,4.230000,-5.320000,8.730000,0.481096,-0.252769,1.253297,0.266447,0.096952,1.081246,0.000000,0.000000,
307202566,-0.050185,16.788397,5,-0.068542,-0.205322,0.277100,-0.936157,3.120000,-5.800000,8.730000,1.600694,0.124715,1.015170,0.247299,0.085028,1.032875,0.000000,0.000000,
307213425,0.321825,16.779110,5,-0.068359,-0.205261,0.277100,-0.936157,3.500000,-5.460000,8.710000,1.166770,-0.143163,0.993871,0.253021,0.100952,1.004322,0.000000,0.000000,
307222821,-0.050185,16.779110,5,-0.068176,-0.205444,0.277161,-0.936096,4.100000,-4.440000,8.230000,0.210483,-0.725880,0.380557,0.234676,0.083396,0.547694,0.000000,0.000000,
307232682,-0.143172,16.783753,5,-0.068176,-0.205872,0.277344,-0.935974,4.290000,-4.860000,7.870000,0.027761,-0.180647,0.395975,0.211504,0.061318,0.436628,0.000000,0.000000,
307243746,0.693864,16.769823,5,-0.068115,-0.206421,0.277710,-0.935730,4.110000,-5.000000,7.930000,0.247068,-0.112926,0.436580,0.242882,0.099300,0.436593,0.000000,0.000000,
307253213,0.507829,16.769823,5,-0.067810,-0.207031,0.278503,-0.935425,4.150000,-5.280000,7.970000,0.303296,0.084947,0.619930,0.260710,0.123563,0.570805,0.000000,0.000000,
307262796,0.136339,16.779110,5,-0.067810,-0.207642,0.279663,-0.934937,4.540000,-5.690000,7.930000,0.048022,0.423816,0.959548,0.254050,0.124205,0.855385,0.000000,0.000000,
307273765,0.228838,16.783753,5,-0.068115,-0.208191,0.281189,-0.934326,4.270000,-5.190000,7.640000,0.090047,0.134340,0.374497,0.253817,0.126751,0.503350,0.000000,0.000000,
307283133,0.136339,16.779110,5,-0.068726,-0.208740,0.282837,-0.933655,4.940000,-5.030000,7.430000,-0.616485,0.096025,0.424774,0.247553,0.122572,0.445828,0.000000,0.000000,
307293005,0.414842,16.783753,5,-0.069763,-0.209229,0.284668,-0.932922,4.520000,-5.320000,7.470000,-0.138060,0.267480,0.424159,0.259406,0.138294,0.429966,0.000000,0.000000,
307303961,0.507829,16.779110,5,-0.071411,-0.209656,0.286682,-0.932068,4.540000,-5.190000,7.410000,-0.188258,0.165207,0.319784,0.276725,0.158951,0.349307,0.000000,0.000000,
307313338,0.414842,16.774467,5,-0.073608,-0.209900,0.288879,-0.931152,4.170000,-5.030000,7.790000,0.258282,-0.230685,0.360792,0.287011,0.171917,0.357714,0.000000,0.000000,
307324126,0.042833,16.783753,5,-0.076294,-0.210266,0.291260,-0.930115,4.670000,-4.880000,6.660000,-0.600529,0.267800,-0.334402,0.273301,0.151640,-0.148950,0.000000,0.000000,
307333593,0.693864,16.769823,5,-0.079407,-0.210632,0.293884,-0.928955,4.340000,-4.570000,7.120000,-0.208392,-0.295869,-0.297375,0.301457,0.177992,-0.257605,0.000000,0.000000,
307343204,0.228838,16.783753,5,-0.082825,-0.211121,0.296753,-0.927612,5.470000,-5.970000,7.410000,-0.703040,0.654920,1.135577,0.298655,0.183926,0.762275,0.000000,0.000000,
307354310,0.228838,16.774467,5,-0.086365,-0.211670,0.299988,-0.926147,4.940000,-5.740000,7.560000,-0.205702,0.305884,0.891476,0.296320,0.188953,0.856857,0.000000,0.000000,
307363519,0.321825,16.779110,5,-0.089905,-0.212158,0.303467,-0.924561,4.670000,-5.740000,7.330000,-0.001995,0.374805,0.613527,0.299698,0.196280,0.678727,0.000000,0.000000,
307373376,-0.143172,16.783753,5,-0.093445,-0.212585,0.307007,-0.922913,4.080000,-5.460000,7.680000,0.589639,-0.145579,0.449537,0.273523,0.170052,0.510948,0.000000,0.000000,
307384206,-0.143172,16.783753,5,-0.096863,-0.212952,0.310608,-0.921265,3.040000,-5.950000,7.720000,1.703281,0.097429,0.270698,0.248892,0.144199,0.335072,0.000000,0.000000,
307393704,0.321825,16.779110,5,-0.100159,-0.213318,0.314209,-0.919617,3.270000,-6.070000,7.970000,1.651287,-0.030937,0.613943,0.254936,0.155187,0.539220,0.000000,0.000000,
307403414,-0.329176,16.793040,5,-0.103577,-0.213928,0.317871,-0.917847,4.130000,-6.200000,7.310000,0.746831,0.449961,0.606473,0.219375,0.120518,0.588452,0.000000,0.000000,
307414499,0.321825,16.779110,5,-0.107422,-0.215027,0.321350,-0.915955,4.670000,-5.740000,7.740000,0.311698,-0.213450,0.903319,0.227289,0.137521,0.818950,0.000000,0.000000,
307423879,0.043352,16.774467,5,-0.112000,-0.216797,0.324585,-0.913818,4.130000,-5.070000,7.350000,0.486619,-0.582299,0.012688,0.216850,0.124501,0.228725,0.000000,0.000000,
307433723,0.043352,16.774467,5,-0.117188,-0.219177,0.327576,-0.911560,3.850000,-5.460000,7.540000,1.013043,-0.486445,0.213981,0.207060,0.114532,0.217932,0.000000,0.000000,
307444460,0.042833,16.783753,5,-0.122559,-0.221985,0.330505,-0.909119,4.290000,-5.440000,7.390000,0.659960,-0.426114,0.304340,0.197868,0.106352,0.281187,0.000000,0.000000,
307453974,0.507829,16.779110,5,-0.127869,-0.225159,0.333557,-0.906494,4.860000,-5.690000,7.350000,0.332584,-0.228617,0.682148,0.218640,0.134622,0.574711,0.000000,0.000000,
307463296,-0.236159,16.779110,5,-0.132996,-0.228271,0.336365,-0.903931,4.880000,-5.990000,6.840000,0.373140,0.274446,0.512225,0.191026,0.107674,0.528968,0.000000,0.000000,
307474174,0.228838,16.774467,5,-0.138245,-0.232300,0.339417,-0.900940,4.790000,-6.240000,7.100000,0.755684,0.203525,0.774053,0.194653,0.118626,0.708382,0.000000,0.000000,
307483912,0.228838,16.783753,5,-0.143372,-0.236633,0.342407,-0.897888,5.590000,-5.800000,6.720000,-0.108891,0.145102,0.695691,0.198014,0.127789,0.699091,0.000000,0.000000,
307493858,0.228838,16.774467,5,-0.148438,-0.241150,0.345154,-0.894775,5.780000,-5.970000,6.130000,-0.256351,0.630385,0.509647,0.201263,0.135011,0.560408,0.000000,0.000000,
307504577,0.042833,16.783753,5,-0.153564,-0.245972,0.347656,-0.891663,6.150000,-5.970000,5.930000,-0.491957,0.754027,0.592681,0.192667,0.130290,0.584034,0.000000,0.000000,
307514290,-0.143172,16.783753,5,-0.158386,-0.250732,0.349915,-0.888611,6.340000,-5.950000,5.880000,-0.538112,0.748928,0.659887,0.172590,0.113138,0.639562,0.000000,0.000000,
307523870,0.043352,16.774467,5,-0.162842,-0.255432,0.351990,-0.885620,6.110000,-5.930000,5.780000,-0.254077,0.726246,0.464928,0.165470,0.108518,0.511721,0.000000,0.000000,
307534896,0.228838,16.783753,5,-0.166992,-0.260010,0.353760,-0.882812,6.360000,-6.090000,5.700000,-0.282781,0.874301,0.648391,0.170743,0.120049,0.611771,0.000000,0.000000,
307544372,0.972368,16.774467,5,-0.170837,-0.264404,0.355286,-0.880127,6.570000,-5.190000,5.340000,-0.891682,0.494672,0.083720,0.222913,0.177135,0.225211,0.000000,0.000000,
307554253,0.136339,16.779110,5,-0.174683,-0.268799,0.356384,-0.877625,6.680000,-5.340000,5.650000,-0.685940,0.358330,0.425665,0.219181,0.175258,0.371953,0.000000,0.000000,
307565031,0.228838,16.774467,5,-0.178467,-0.273071,0.357056,-0.875244,8.040000,-4.020000,5.530000,-2.352936,-0.311739,0.486095,0.221717,0.181146,0.455511,0.000000,0.000000,
307574642,-0.050185,16.779110,5,-0.182068,-0.277222,0.357422,-0.873047,6.030000,-4.710000,4.920000,-0.532449,0.347168,-0.727571,0.206057,0.154679,-0.410565,0.000000,0.000000,
307584458,0.507829,16.779110,5,-0.185608,-0.281372,0.357300,-0.871033,6.390000,-4.670000,5.610000,-0.480333,-0.140340,-0.102806,0.226794,0.174916,-0.185270,0.000000,0.000000,
307595552,0.135820,16.788397,5,-0.190186,-0.286438,0.355774,-0.869019,6.450000,-5.050000,5.570000,-0.209574,0.173975,0.107269,0.222953,0.169607,0.028884,0.000000,0.000000,
307604926,0.600847,16.774467,5,-0.194641,-0.291077,0.354126,-0.867188,6.390000,-4.920000,5.550000,-0.110206,0.113138,-0.012515,0.248637,0.196245,-0.001422,0.000000,0.000000,
307614761,0.507829,16.779110,5,-0.198120,-0.294739,0.353149,-0.865540,6.530000,-4.500000,5.670000,-0.299620,-0.221496,-0.052584,0.267075,0.214017,-0.038875,0.000000,0.000000,
307625327,0.042833,16.783753,5,-0.201172,-0.298218,0.351868,-0.864197,7.750000,-3.830000,5.690000,-1.478355,-0.501084,0.431382,0.255084,0.202670,0.305377,0.000000,0.000000,
307634956,0.507829,16.779110,5,-0.204102,-0.301636,0.350281,-0.862976,6.180000,-5.360000,4.860000,0.312628,0.930378,-0.333708,0.273108,0.217219,-0.162466,0.000000,0.000000,
307644652,0.136339,16.779110,5,-0.207886,-0.305420,0.347717,-0.861755,7.100000,-4.560000,5.820000,-0.341289,-0.129484,0.448307,0.266544,0.211928,0.284651,0.000000,0.000000,
307655645,0.136339,16.779110,5,-0.213074,-0.310364,0.343262,-0.860535,8.060000,0.760000,4.360000,-4.521057,-2.426748,-2.170301,0.260362,0.179727,-1.512498,0.000000,0.000000,
307665060,0.507829,16.779110,5,-0.217285,-0.314575,0.339172,-0.859558,6.780000,-6.490000,2.810000,0.118401,3.446859,-0.622070,0.277843,0.191724,-0.860660,0.000000,0.000000,
307674898,0.507829,16.779110,5,-0.220276,-0.317993,0.335754,-0.858887,8.480000,-4.110000,4.150000,-1.859580,1.208342,0.256397,0.294434,0.210477,-0.042918,0.000000,0.000000,
307685851,-0.050185,16.779110,5,-0.224792,-0.322571,0.330627,-0.857971,8.870000,-2.030000,5.050000,-2.869541,-0.686322,0.179448,0.274779,0.188028,0.119865,0.000000,0.000000,
307695294,0.228838,16.783753,5,-0.228699,-0.326172,0.326416,-0.857178,9.520000,-2.930000,5.320000,-2.547631,-0.061797,1.202550,0.273718,0.196465,0.912446,0.000000,0.000000,
307705009,-0.050185,16.788397,5,-0.230896,-0.328125,0.323547,-0.856934,4.670000,-2.240000,8.160000,1.560349,-3.370685,-0.876435,0.254880,0.164986,-0.397106,0.000000,0.000000,
307716114,0.414842,16.783753,5,-0.233093,-0.330505,0.319641,-0.856873,4.570000,-5.950000,5.740000,2.951493,0.920382,-0.876590,0.266848,0.166742,-0.748112,0.000000,0.000000,
307725597,0.043352,16.774467,5,-0.237671,-0.333435,0.314941,-0.856262,6.800000,-3.370000,7.750000,0.822812,-1.743690,0.874587,0.254264,0.159657,0.439786,0.000000,0.000000,
307735346,0.136339,16.779110,5,-0.241150,-0.336975,0.310791,-0.855408,7.100000,-3.330000,8.410000,0.997386,-2.099567,1.461027,0.248404,0.165546,1.187386,0.000000,0.000000,
307746020,0.507829,16.788397,5,-0.244141,-0.339539,0.307739,-0.854614,8.330000,-3.140000,10.360000,1.007894,-3.263445,3.428831,0.266993,0.219986,2.828237,0.000000,0.000000,
307755584,0.136339,16.779110,5,-0.246887,-0.342224,0.304932,-0.853760,7.260000,-4.440000,8.900000,1.988442,-1.515882,2.262742,0.260841,0.232194,2.414266,0.000000,0.000000,
307765200,0.507829,16.779110,5,-0.249512,-0.344727,0.302185,-0.852966,7.070000,-5.300000,5.700000,1.347106,1.293292,0.552337,0.278785,0.254955,1.051240,0.000000,0.000000,
307776236,0.136339,16.779110,5,-0.252075,-0.347290,0.299255,-0.852234,7.740000,-4.670000,7.540000,1.415952,-0.207948,1.885513,0.272651,0.265364,1.661970,0.000000,0.000000,
307785870,0.507829,16.779110,5,-0.254761,-0.350281,0.296082,-0.851318,8.040000,-5.380000,7.830000,1.912249,0.217172,2.496636,0.290373,0.306420,2.272988,0.000000,0.000000,
307795653,0.414842,16.783753,5,-0.257263,-0.353149,0.293091,-0.850403,7.080000,-5.670000,7.050000,2.450392,0.784981,1.402434,0.301350,0.328967,1.635698,0.000000,0.000000,
307806374,0.042833,16.783753,5,-0.259399,-0.355591,0.290649,-0.849609,7.720000,-4.730000,7.080000,1.548559,0.295791,1.588561,0.288462,0.327641,1.601191,0.000000,0.000000,
307815856,0.135820,16.788397,5,-0.261536,-0.357849,0.288086,-0.848816,7.700000,-3.230000,7.430000,0.820214,-0.944530,1.309103,0.281870,0.329080,1.387368,0.000000,0.000000,
307825523,0.321825,16.779110,5,-0.264648,-0.360413,0.284668,-0.847961,8.460000,-3.440000,6.590000,0.213503,0.019564,1.461317,0.287671,0.346050,1.441502,0.000000,0.000000,
307836570,0.136339,16.779110,5,-0.268860,-0.362976,0.281250,-0.846680,7.870000,-2.890000,6.990000,0.490934,-0.698287,1.078416,0.281886,0.347351,1.175705,0.000000,0.000000,
307846071,0.136339,16.779110,5,-0.274414,-0.365967,0.277466,-0.844849,8.710000,-0.590000,6.660000,-1.566653,-1.772370,0.922339,0.275921,0.345629,0.990228,0.000000,0.000000,
307855941,-0.050185,16.779110,5,-0.281372,-0.369568,0.272705,-0.842529,6.970000,-0.930000,5.630000,-0.684085,-1.214509,-0.898990,0.258411,0.313552,-0.392775,0.000000,0.000000,
307866747,0.786852,16.783753,5,-0.289124,-0.373413,0.267273,-0.839966,7.970000,-2.200000,7.310000,0.548773,-1.056983,1.172069,0.295673,0.363439,0.752771,0.000000,0.000000,
307876195,0.228838,16.774467,5,-0.297241,-0.377625,0.261475,-0.837097,6.610000,-3.390000,6.610000,1.953993,-0.069654,-0.047894,0.294805,0.357969,0.166643,0.000000,0.000000,
307885952,0.228838,16.783753,5,-0.305237,-0.382202,0.255737,-0.833862,7.470000,-2.100000,5.630000,0.299978,0.059382,-0.216968,0.294064,0.351151,-0.114180,0.000000,0.000000,
307897961,0.507829,16.779110,5,-0.313965,-0.386536,0.250061,-0.830383,7.510000,-4.210000,3.920000,1.301394,2.847665,-0.811375,0.311870,0.357049,-0.624562,0.000000,0.000000,
307906941,0.414842,16.774467,5,-0.323242,-0.390686,0.244812,-0.826416,7.810000,-0.590000,5.820000,-0.526374,-0.752956,-0.083911,0.321688,0.364069,-0.228778,0.000000,0.000000,
307916427,0.414842,16.774467,5,-0.331787,-0.394836,0.240295,-0.822388,7.160000,-2.060000,5.240000,0.738128,0.474058,-0.733485,0.331044,0.363761,-0.598249,0.000000,0.000000,
307928147,0.136339,16.779110,5,-0.339478,-0.398865,0.236816,-0.818237,8.710000,-1.570000,4.650000,-0.326794,1.230344,0.124484,0.322882,0.350903,-0.069172,0.000000,0.000000,
307937035,-0.236159,16.779110,5,-0.346191,-0.402588,0.233643,-0.814575,6.720000,-0.780000,5.300000,0.281282,-0.456788,-1.217829,0.290123,0.299084,-0.910047,0.000000,0.000000,
307946636,0.507829,16.779110,5,-0.352600,-0.405884,0.231201,-0.810852,7.790000,-0.150000,4.400000,-0.991752,0.176635,-0.908643,0.306862,0.305937,-0.909019,0.000000,0.000000,
307957525,-0.050185,16.788397,5,-0.358521,-0.408997,0.228821,-0.807373,8.810000,-1.220000,4.880000,-0.233197,0.996619,0.296428,0.287427,0.283257,-0.026571,0.000000,0.000000,
307967008,-0.422163,16.788397,5,-0.363220,-0.412109,0.227112,-0.804199,7.740000,0.740000,5.300000,-0.997424,-0.914284,-0.486401,0.244704,0.227597,-0.363190,0.000000,0.000000,
307976645,0.414842,16.765180,5,-0.366821,-0.415222,0.225586,-0.801331,8.540000,-0.110000,4.690000,-0.860487,0.369725,-0.096642,0.257768,0.238839,-0.168063,0.000000,0.000000,
307987679,0.228838,16.783753,5,-0.370117,-0.418396,0.224182,-0.798523,9.190000,-0.490000,5.050000,-0.529720,0.640397,0.662159,0.258622,0.243777,0.439702,0.000000,0.000000,
307997067,-0.050185,16.779110,5,-0.372498,-0.421631,0.223083,-0.796082,8.870000,0.490000,5.400000,-0.907193,-0.327388,0.548892,0.241194,0.226794,0.519634,0.000000,0.000000,
308006901,0.228838,16.783753,5,-0.373230,-0.424500,0.221497,-0.794617,9.060000,0.280000,5.230000,-0.819585,-0.003349,0.637484,0.242670,0.232176,0.605906,0.000000,0.000000,
308017667,-0.236159,16.779110,5,-0.373413,-0.427551,0.219849,-0.793335,9.630000,-0.380000,6.070000,0.002467,0.082081,1.587461,0.214689,0.214811,1.324454,0.000000,0.000000,
308027176,0.414842,16.774467,5,-0.374207,-0.431091,0.217407,-0.791748,9.060000,-1.180000,5.240000,0.490154,0.915964,0.685685,0.229535,0.235526,0.856843,0.000000,0.000000,
308036928,0.228838,16.774467,5,-0.375427,-0.434692,0.214417,-0.790039,8.330000,0.900000,5.380000,-0.702101,-0.757013,0.105031,0.231767,0.236497,0.306478,0.000000,0.000000,
308047969,0.042833,16.783753,5,-0.376465,-0.438110,0.211304,-0.788452,8.290000,0.550000,5.030000,-0.507527,-0.293914,-0.104422,0.222280,0.221993,0.005679,0.000000,0.000000,
308057335,0.228838,16.774467,5,-0.378967,-0.441833,0.208008,-0.786072,7.850000,0.220000,4.590000,-0.240358,0.050878,-0.702168,0.224721,0.215637,-0.512501,0.000000,0.000000,
308067223,-0.050185,16.779110,5,-0.381836,-0.445740,0.204956,-0.783264,8.200000,1.240000,4.980000,-0.825914,-0.670469,-0.185234,0.209291,0.194114,-0.272925,0.000000,0.000000,
308077942,0.136339,16.779110,5,-0.384521,-0.449463,0.202515,-0.780457,8.270000,1.050000,5.010000,-0.579675,-0.513647,-0.104117,0.206708,0.187740,-0.149349,0.000000,0.000000,
308087433,0.414842,16.774467,5,-0.386963,-0.452698,0.200989,-0.777771,8.440000,0.970000,5.090000,-0.426228,-0.440133,0.082533,0.221810,0.203538,0.020400,0.000000,0.000000,
308097152,0.786852,16.774467,5,-0.389221,-0.455505,0.200256,-0.775208,8.310000,0.300000,5.150000,0.251726,-0.111763,-0.025464,0.259879,0.243743,-0.013175,0.000000,0.000000,
308108191,0.136339,16.769823,5,-0.391174,-0.458008,0.200439,-0.772705,8.540000,0.210000,4.940000,0.207739,0.162300,0.067902,0.254679,0.235635,0.046178,0.000000,0.000000,
308117535,0.136339,16.769823,5,-0.392944,-0.460266,0.201599,-0.770142,8.100000,0.240000,5.400000,0.615401,-0.379017,-0.087997,0.249303,0.226252,-0.052045,0.000000,0.000000,
308127380,0.043352,16.774467,5,-0.394653,-0.462524,0.203003,-0.767578,9.080000,0.190000,5.230000,0.354898,0.138999,0.671601,0.238429,0.218085,0.477701,0.000000,0.000000,
308138117,-0.143172,16.774467,5,-0.396362,-0.464600,0.204651,-0.764954,8.750000,0.210000,5.030000,0.368188,0.086958,0.283327,0.216386,0.193875,0.335409,0.000000,0.000000,
308147715,0.600847,16.765180,5,-0.398010,-0.466492,0.206787,-0.762390,8.520000,0.210000,5.070000,0.489090,-0.075674,0.105717,0.242828,0.222469,0.167263,0.000000,0.000000,
308157452,0.321825,16.769823,5,-0.399780,-0.468628,0.208313,-0.759705,8.620000,0.340000,5.110000,0.438579,-0.184235,0.218178,0.250054,0.230256,0.204535,0.000000,0.000000,
308168488,0.043352,16.765180,5,-0.401489,-0.471313,0.208923,-0.756958,8.900000,0.380000,4.820000,0.241923,0.076892,0.323198,0.239400,0.218992,0.291403,0.000000,0.000000,
308177875,-0.049666,16.769823,5,-0.403015,-0.474121,0.209290,-0.754333,8.770000,0.130000,4.610000,0.438273,0.294781,0.099731,0.222961,0.199043,0.151090,0.000000,0.000000,
308187765,-0.143172,16.774467,5,-0.404358,-0.476807,0.209839,-0.751770,8.890000,0.490000,4.730000,0.246657,0.017448,0.278312,0.201546,0.175533,0.244223,0.000000,0.000000,
308198532,-0.049666,16.769823,5,-0.405518,-0.479553,0.210266,-0.749268,9.100000,0.650000,4.730000,0.144185,-0.019110,0.481610,0.187405,0.162657,0.418002,0.000000,0.000000,
308208172,0.321825,16.760536,5,-0.406494,-0.482422,0.210327,-0.746826,9.170000,0.680000,4.650000,0.130980,0.022514,0.502026,0.197599,0.177195,0.479512,0.000000,0.000000,
308217969,-0.143172,16.774467,5,-0.407166,-0.485291,0.210327,-0.744629,9.290000,0.570000,4.360000,0.109358,0.311154,0.476995,0.177571,0.157397,0.477669,0.000000,0.000000,
308228991,-0.049666,16.769823,5,-0.407593,-0.488098,0.210327,-0.742554,9.520000,0.840000,4.310000,-0.120046,0.250694,0.676931,0.164813,0.148498,0.623539,0.000000,0.000000,
308238374,0.043352,16.765180,5,-0.407959,-0.490845,0.210266,-0.740601,9.610000,0.880000,4.340000,-0.084216,0.219943,0.775634,0.158472,0.147065,0.734880,0.000000,0.000000,
308249298,0.228838,16.774467,5,-0.408081,-0.493408,0.210144,-0.738831,9.400000,1.070000,4.230000,-0.201369,0.077215,0.558748,0.164611,0.158280,0.605942,0.000000,0.000000,
308258730,0.321825,16.769823,5,-0.408142,-0.495605,0.210266,-0.737244,9.230000,0.900000,3.940000,-0.151121,0.289678,0.265363,0.176170,0.172034,0.356621,0.000000,0.000000,
308268448,-0.236159,16.769823,5,-0.408203,-0.497498,0.210632,-0.735840,9.170000,0.900000,3.960000,-0.088023,0.230316,0.226478,0.151473,0.144572,0.261350,0.000000,0.000000,
308279252,0.136339,16.769823,5,-0.408386,-0.499268,0.210815,-0.734497,9.330000,1.050000,4.460000,0.087244,-0.178080,0.589636,0.152112,0.149760,0.501672,0.000000,0.000000,
308288695,0.136339,16.769823,5,-0.408569,-0.501038,0.210632,-0.733215,9.130000,0.590000,4.310000,0.445422,0.102790,0.301191,0.152522,0.151409,0.354910,0.000000,0.000000,
308298425,0.321825,16.769823,5,-0.408752,-0.502686,0.210449,-0.732056,9.400000,0.760000,4.480000,0.396187,-0.027568,0.632355,0.164860,0.169726,0.558014,0.000000,0.000000,
308309524,-0.049666,16.769823,5,-0.408875,-0.504395,0.209900,-0.730957,9.170000,1.070000,4.540000,0.260660,-0.347139,0.478375,0.153042,0.159680,0.499714,0.000000,0.000000,
308318998,0.507829,16.769823,5,-0.408936,-0.506226,0.209106,-0.729919,9.290000,1.130000,4.480000,0.204848,-0.300718,0.568336,0.177299,0.190704,0.549949,0.000000,0.000000,
308328778,0.321825,16.769823,5,-0.408997,-0.507874,0.208313,-0.729004,9.230000,1.030000,4.310000,0.243006,-0.151903,0.433445,0.188426,0.205338,0.464662,0.000000,0.000000,
308339580,0.228838,16.765180,5,-0.409058,-0.509338,0.207581,-0.728149,9.350000,1.160000,4.110000,0.043410,-0.034343,0.482230,0.193259,0.213444,0.477522,0.000000,0.000000,
308348940,0.507829,16.760536,5,-0.409180,-0.510681,0.206787,-0.727295,9.580000,1.160000,4.040000,0.001057,0.097605,0.660708,0.215427,0.242384,0.611624,0.000000,0.000000,
308358629,0.600847,16.765180,5,-0.409424,-0.511902,0.205933,-0.726562,9.730000,1.180000,4.060000,0.013169,0.132412,0.812014,0.242459,0.277937,0.758320,0.000000,0.000000,
308369608,0.786852,16.765180,5,-0.409607,-0.513062,0.205078,-0.725891,9.690000,1.130000,4.210000,0.185014,0.037733,0.822702,0.280388,0.325973,0.805451,0.000000,0.000000,
308379156,0.043352,16.765180,5,-0.409729,-0.514160,0.204102,-0.725281,9.480000,1.030000,4.110000,0.260407,0.091718,0.580396,0.268347,0.314354,0.640699,0.000000,0.000000,
308388990,0.786852,16.765180,5,-0.409912,-0.515198,0.202942,-0.724792,9.400000,0.970000,4.170000,0.385639,0.063823,0.522020,0.304619,0.356763,0.553820,0.000000,0.000000,
308399760,0.600847,16.765180,5,-0.409973,-0.516174,0.201721,-0.724426,9.060000,1.050000,4.130000,0.373969,-0.074027,0.205346,0.327417,0.380332,0.298720,0.000000,0.000000,
308409208,-0.422163,16.769823,5,-0.409851,-0.517090,0.200378,-0.724243,9.290000,1.030000,4.150000,0.402471,0.023498,0.419367,0.283061,0.330256,0.387039,0.000000,0.000000,
308418693,0.043352,16.765180,5,-0.409607,-0.518066,0.198853,-0.724060,8.920000,1.390000,4.080000,0.143819,-0.274691,0.103714,0.270868,0.313996,0.179631,0.000000,0.000000,
308429157,0.043352,16.765180,5,-0.409241,-0.518982,0.197388,-0.724060,9.350000,1.490000,4.100000,0.046340,-0.162848,0.513657,0.259652,0.302994,0.424155,0.000000,0.000000,
308438746,-0.049666,16.769823,5,-0.408875,-0.519714,0.196167,-0.724060,9.360000,1.550000,4.060000,-0.003191,-0.160735,0.516974,0.242816,0.285746,0.492104,0.000000,0.000000,
308448550,0.321825,16.760536,5,-0.408386,-0.520264,0.195312,-0.724182,9.290000,1.450000,4.130000,0.141420,-0.179454,0.468082,0.250685,0.295996,0.474519,0.000000,0.000000,
308459158,0.136339,16.769823,5,-0.407898,-0.520691,0.194702,-0.724304,9.310000,1.280000,4.250000,0.345957,-0.155694,0.507812,0.246548,0.293192,0.498891,0.000000,0.000000,
308469101,-0.049666,16.760536,5,-0.407410,-0.521057,0.194092,-0.724487,9.350000,1.530000,4.290000,0.175187,-0.310026,0.593803,0.230557,0.277822,0.568372,0.000000,0.000000,
308478766,0.321825,16.769823,5,-0.406921,-0.521362,0.193665,-0.724670,9.500000,1.340000,4.130000,0.211811,-0.026005,0.642394,0.239107,0.290594,0.622560,0.000000,0.000000,
308489633,0.321825,16.760536,5,-0.406433,-0.521545,0.193542,-0.724854,9.520000,1.360000,4.080000,0.169538,-0.002014,0.648282,0.247594,0.303560,0.641390,0.000000,0.000000,
308499108,0.414842,16.755893,5,-0.405945,-0.521790,0.193237,-0.724976,9.350000,1.450000,4.130000,0.150016,-0.156537,0.524871,0.261187,0.320553,0.556092,0.000000,0.000000,
308507869,0.136339,16.760536,5,-0.405457,-0.521973,0.192932,-0.725220,9.460000,1.470000,4.100000,0.102541,-0.104720,0.616785,0.256051,0.317007,0.600522,0.000000,0.000000,
308517589,0.228838,16.765180,5,-0.404907,-0.522095,0.192688,-0.725525,9.400000,1.410000,4.000000,0.097366,-0.021775,0.515320,0.257420,0.320092,0.538150,0.000000,0.000000,
308525404,0.321825,16.769823,5,-0.404907,-0.522095,0.192688,-0.725525,9.360000,1.390000,3.920000,0.070098,0.030922,0.445465,0.264026,0.328116,0.470300,0.000000,0.000000,
308533008,0.228838,16.765180,5,-0.404358,-0.522278,0.192383,-0.725769,9.360000,1.410000,4.150000,0.194179,-0.146278,0.526687,0.264312,0.329658,0.511578,0.000000,0.000000,
308542703,0.043352,16.765180,5,-0.403870,-0.522400,0.192078,-0.726013,9.460000,1.510000,4.150000,0.101573,-0.163632,0.641489,0.253594,0.320488,0.606679,0.000000,0.000000,
308551568,0.507829,16.760536,5,-0.403442,-0.522522,0.191711,-0.726257,9.460000,1.300000,4.060000,0.212561,0.025756,0.577195,0.272492,0.343253,0.585095,0.000000,0.000000,
308560625,-0.050185,16.779110,5,-0.403137,-0.522766,0.191162,-0.726440,9.350000,1.370000,4.130000,0.214315,-0.107294,0.513284,0.255297,0.325596,0.532526,0.000000,0.000000,
308571188,0.043352,16.765180,5,-0.402771,-0.522949,0.190552,-0.726624,9.210000,1.470000,4.110000,0.149952,-0.201115,0.390726,0.245399,0.315166,0.428721,0.000000,0.000000,
308580454,0.321825,16.769823,5,-0.402527,-0.523193,0.189819,-0.726807,9.120000,0.900000,4.080000,0.598388,0.135769,0.212890,0.253140,0.322398,0.270722,0.000000,0.000000,
308590052,0.136339,16.769823,5,-0.402161,-0.523499,0.188843,-0.727051,9.000000,1.720000,3.900000,-0.129765,-0.274448,0.152828,0.248875,0.315765,0.184418,0.000000,0.000000,
308600404,0.414842,16.765180,5,-0.402222,-0.523926,0.187622,-0.726990,9.250000,1.640000,4.080000,0.027096,-0.241672,0.435270,0.262647,0.331742,0.368054,0.000000,0.000000,
308610077,0.136339,16.769823,5,-0.402710,-0.524414,0.186096,-0.726746,9.400000,1.550000,4.100000,0.114164,-0.119333,0.571071,0.257912,0.328470,0.516672,0.000000,0.000000,
308619151,0.043352,16.765180,5,-0.402954,-0.524841,0.184509,-0.726746,9.380000,1.070000,4.110000,0.520317,0.180950,0.486868,0.247367,0.317885,0.494854,0.000000,0.000000,
308628682,0.043352,16.774467,5,-0.403076,-0.525208,0.182861,-0.726746,9.400000,1.700000,4.150000,0.076334,-0.201658,0.613497,0.237558,0.309505,0.581706,0.000000,0.000000,
308637299,0.228838,16.765180,5,-0.403381,-0.525818,0.180786,-0.726746,9.580000,0.380000,4.230000,1.154432,0.656009,0.593970,0.239698,0.314018,0.590684,0.000000,0.000000,
308645235,0.414842,16.765180,5,-0.403381,-0.525818,0.180786,-0.726746,8.890000,2.080000,4.270000,-0.019198,-0.646203,0.256727,0.253196,0.328117,0.346210,0.000000,0.000000,
308655355,0.321825,16.769823,5,-0.403931,-0.526550,0.178162,-0.726501,9.130000,1.390000,4.420000,0.627351,-0.190417,0.418883,0.260848,0.337031,0.399411,0.000000,0.000000,
308663657,0.600847,16.774467,5,-0.405029,-0.527466,0.175049,-0.726013,9.270000,0.190000,4.380000,1.561406,0.686719,0.323063,0.284994,0.363165,0.343520,0.000000,0.000000,
308672447,0.321825,16.779110,5,-0.406128,-0.528503,0.171692,-0.725464,8.980000,2.100000,4.230000,0.094744,-0.446475,0.333916,0.290506,0.368626,0.336490,0.000000,0.000000,
308683140,0.414842,16.774467,5,-0.407410,-0.529785,0.167969,-0.724670,9.210000,1.780000,3.710000,0.057919,0.260500,0.285991,0.302259,0.380215,0.299522,0.000000,0.000000,
308692023,0.136339,16.779110,5,-0.409119,-0.531189,0.163818,-0.723633,9.460000,1.850000,3.900000,0.101261,0.196473,0.596033,0.295257,0.374150,0.516583,0.000000,0.000000,
308701297,0.321825,16.779110,5,-0.410339,-0.532532,0.159851,-0.722839,8.750000,2.140000,3.880000,-0.002148,-0.206958,0.008128,0.300378,0.376063,0.144368,0.000000,0.000000,
308711977,0.321825,16.769823,5,-0.411499,-0.533630,0.155945,-0.722168,9.630000,1.740000,3.960000,0.332413,0.419116,0.746374,0.305802,0.385282,0.585067,0.000000,0.000000,
308721266,-0.143172,16.774467,5,-0.412781,-0.534790,0.151611,-0.721558,9.210000,1.950000,3.810000,0.182917,0.276919,0.352229,0.281150,0.357261,0.414617,0.000000,0.000000,
308730940,0.321825,16.769823,5,-0.414368,-0.535889,0.146484,-0.720886,8.750000,1.700000,4.710000,1.063571,-0.277549,0.223392,0.287169,0.362257,0.274631,0.000000,0.000000,
308742044,-0.049666,16.769823,5,-0.416077,-0.536865,0.141235,-0.720215,8.870000,1.620000,4.190000,0.841908,0.249631,0.104772,0.269959,0.340014,0.150285,0.000000,0.000000,
308751227,-0.143172,16.783753,5,-0.416504,-0.537415,0.136902,-0.720398,9.040000,1.570000,3.690000,0.579861,0.742773,0.041991,0.246997,0.311237,0.071008,0.000000,0.000000,
308761084,0.507829,16.769823,5,-0.415771,-0.537598,0.134155,-0.721191,9.480000,1.850000,3.870000,0.468212,0.691665,0.575725,0.266577,0.335223,0.440487,0.000000,0.000000,
308771881,0.693864,16.769823,5,-0.414490,-0.537476,0.132080,-0.722412,9.880000,1.990000,4.210000,0.556211,0.591738,1.098584,0.297308,0.377038,0.922248,0.000000,0.000000,
308781410,-0.329176,16.774467,5,-0.412720,-0.537170,0.130310,-0.723999,9.480000,1.870000,4.190000,0.646171,0.513683,0.698181,0.261245,0.339077,0.758219,0.000000,0.000000,
308791196,0.043352,16.774467,5,-0.410461,-0.536682,0.128845,-0.725830,9.100000,2.200000,4.440000,0.578929,-0.009777,0.547849,0.250779,0.328948,0.604218,0.000000,0.000000,
308802266,0.321825,16.769823,5,-0.407593,-0.536133,0.127991,-0.728027,9.130000,2.310000,4.020000,0.181342,0.186545,0.442617,0.258951,0.338961,0.485918,0.000000,0.000000,
308811562,0.228838,16.774467,5,-0.404297,-0.535645,0.127136,-0.730347,8.810000,2.220000,3.790000,0.084890,0.230512,0.038026,0.260173,0.336980,0.158039,0.000000,0.000000,
308821429,0.228838,16.774467,5,-0.401001,-0.535156,0.126038,-0.732727,9.400000,2.330000,4.110000,0.131317,0.217437,0.717674,0.261561,0.341787,0.567720,0.000000,0.000000,
308831971,-0.049666,16.769823,5,-0.397644,-0.534668,0.125000,-0.735107,8.830000,2.120000,4.100000,0.299787,0.096356,0.158250,0.245365,0.321207,0.267967,0.000000,0.000000,
308841636,0.321825,16.769823,5,-0.394287,-0.534119,0.123962,-0.737488,8.890000,2.260000,4.480000,0.425326,-0.209936,0.400531,0.253360,0.330617,0.365011,0.000000,0.000000,
308851532,0.321825,16.760536,5,-0.390991,-0.533569,0.122681,-0.739868,8.850000,1.970000,4.540000,0.650026,-0.069313,0.318705,0.261005,0.338706,0.331112,0.000000,0.000000,
308862579,0.693864,16.769823,5,-0.387939,-0.532959,0.121216,-0.742126,8.350000,1.740000,3.640000,0.221848,0.398929,-0.541316,0.292286,0.364228,-0.307550,0.000000,0.000000,
308872086,0.600847,16.765180,5,-0.385071,-0.532349,0.119690,-0.744324,9.580000,2.560000,4.310000,-0.082474,0.004124,1.013858,0.315544,0.396737,0.659788,0.000000,0.000000,
308881834,-0.049666,16.769823,5,-0.382324,-0.531677,0.118103,-0.746460,8.430000,1.530000,4.330000,0.780318,0.183035,-0.226738,0.296067,0.368012,0.010806,0.000000,0.000000,
308892609,0.414842,16.765180,5,-0.379395,-0.530884,0.116821,-0.748718,9.040000,2.410000,3.880000,-0.272822,0.120590,0.323618,0.307648,0.380025,0.239800,0.000000,0.000000,
308902032,0.693864,16.769823,5,-0.376465,-0.530090,0.115417,-0.750977,8.790000,1.530000,3.920000,0.368041,0.594149,-0.075143,0.335897,0.407392,0.009246,0.000000,0.000000,
308911731,0.136339,16.769823,5,-0.373413,-0.529175,0.114319,-0.753296,8.560000,2.750000,4.420000,-0.111747,-0.645822,0.200766,0.327119,0.394832,0.149448,0.000000,0.000000,
308922725,-0.049666,16.769823,5,-0.370117,-0.528320,0.113342,-0.755676,8.710000,1.410000,4.380000,0.714015,0.370289,0.019284,0.307366,0.367731,0.054162,0.000000,0.000000,
308932260,0.043352,16.765180,5,-0.366577,-0.527527,0.112671,-0.758057,8.770000,2.950000,4.440000,-0.336651,-0.735655,0.433589,0.294011,0.352672,0.331922,0.000000,0.000000,
308942142,0.507829,16.769823,5,-0.363037,-0.526855,0.112000,-0.760315,8.790000,1.530000,4.650000,0.731868,0.153448,0.233491,0.311181,0.370573,0.259866,0.000000,0.000000,
308952812,0.228838,16.765180,5,-0.359924,-0.526367,0.111023,-0.762268,8.500000,1.700000,4.500000,0.528314,-0.016916,-0.049881,0.309850,0.364106,0.033115,0.000000,0.000000,
308962374,0.136339,16.769823,5,-0.356506,-0.525879,0.110352,-0.764343,8.430000,1.760000,4.500000,0.475368,-0.102478,-0.095681,0.302209,0.350454,-0.061170,0.000000,0.000000,
308972053,0.136339,16.760536,5,-0.352966,-0.525513,0.109802,-0.766296,8.520000,1.280000,4.290000,0.587164,0.377906,-0.197366,0.294972,0.336427,-0.160872,0.000000,0.000000,
308983092,0.321825,16.769823,5,-0.349304,-0.525208,0.109436,-0.768188,9.270000,1.620000,4.400000,0.259279,0.363043,0.577093,0.300465,0.344491,0.379356,0.000000,0.000000,
308992587,0.043352,16.765180,5,-0.344666,-0.524841,0.109741,-0.770508,8.200000,2.100000,4.570000,0.264241,-0.568202,-0.200974,0.287221,0.323530,-0.045475,0.000000,0.000000,
309002431,-0.049666,16.760536,5,-0.339966,-0.524353,0.109802,-0.772888,9.020000,1.410000,4.480000,0.422798,0.289118,0.354569,0.268854,0.302376,0.247378,0.000000,0.000000,
309013135,0.321825,16.760536,5,-0.335022,-0.523865,0.110046,-0.775391,8.560000,2.010000,4.570000,0.158836,-0.443836,0.096386,0.275487,0.307314,0.136844,0.000000,0.000000,
309022602,0.321825,16.769823,5,-0.329468,-0.523315,0.110535,-0.778076,9.040000,1.450000,4.420000,0.241382,0.198157,0.358573,0.281392,0.314168,0.299161,0.000000,0.000000,
309032380,-0.236159,16.769823,5,-0.323975,-0.522705,0.111023,-0.780701,9.170000,1.360000,4.330000,0.143936,0.315648,0.430173,0.251328,0.280529,0.395068,0.000000,0.000000,
309042774,0.043352,16.765180,5,-0.318115,-0.522034,0.111755,-0.783447,9.080000,0.900000,4.400000,0.435993,0.531629,0.311728,0.240928,0.268598,0.334059,0.000000,0.000000,
309052607,0.136339,16.760536,5,-0.312378,-0.521301,0.112427,-0.786133,9.100000,1.180000,3.960000,-0.129873,0.483199,0.185825,0.236868,0.262755,0.225544,0.000000,0.000000,
309062608,0.321825,16.769823,5,-0.307007,-0.520447,0.112976,-0.788757,8.850000,0.680000,4.330000,0.456604,0.549409,0.046855,0.244938,0.269437,0.094734,0.000000,0.000000,
309073279,0.600847,16.765180,5,-0.302307,-0.519775,0.113037,-0.791016,8.870000,1.360000,4.630000,0.223898,-0.168539,0.295070,0.270668,0.298563,0.241391,0.000000,0.000000,
309082870,-0.049666,16.769823,5,-0.297180,-0.518860,0.113464,-0.793457,9.000000,1.220000,4.170000,-0.134836,0.168313,0.193091,0.252984,0.276896,0.206033,0.000000,0.000000,
309092707,0.043352,16.765180,5,-0.292175,-0.517883,0.113770,-0.795898,9.590000,0.840000,4.400000,0.035586,0.526581,0.771741,0.242322,0.269147,0.620160,0.000000,0.000000,
309103731,0.321825,16.769823,5,-0.287537,-0.517090,0.114014,-0.798096,8.770000,0.840000,4.540000,0.337651,0.133114,0.107595,0.250381,0.276307,0.244937,0.000000,0.000000,
309113230,-0.142653,16.765180,5,-0.283203,-0.516235,0.114197,-0.800171,9.250000,0.780000,4.440000,0.097556,0.353274,0.484347,0.227798,0.252090,0.420197,0.000000,0.000000,
309122980,0.321825,16.760536,5,-0.278992,-0.515442,0.114441,-0.802124,8.960000,0.630000,4.790000,0.493917,0.169959,0.368872,0.236304,0.262572,0.382625,0.000000,0.000000,
309133635,0.043352,16.765180,5,-0.274841,-0.514465,0.114624,-0.804138,9.080000,0.070000,3.830000,-0.010964,1.088478,-0.007048,0.226704,0.248487,0.097365,0.000000,0.000000,
309143214,0.043352,16.774467,5,-0.271057,-0.513611,0.114746,-0.805969,8.980000,0.950000,3.870000,-0.489675,0.281584,0.012131,0.217312,0.235132,0.034970,0.000000,0.000000,
309153174,0.228838,16.765180,5,-0.267151,-0.512756,0.114990,-0.807739,8.370000,0.780000,4.560000,0.290300,-0.121475,-0.242370,0.220372,0.233573,-0.168057,0.000000,0.000000,
309164228,0.136339,16.760536,5,-0.263000,-0.511780,0.115417,-0.809692,8.870000,0.550000,6.220000,1.483199,-0.575181,0.930976,0.217652,0.237386,0.636491,0.000000,0.000000,
309173704,-0.143172,16.774467,5,-0.258850,-0.510742,0.115845,-0.811584,8.730000,0.720000,5.000000,0.449934,-0.239602,0.278090,0.196717,0.213370,0.374124,0.000000,0.000000,
309183391,0.043352,16.755893,5,-0.254761,-0.509766,0.116272,-0.813477,8.870000,0.380000,5.000000,0.540422,0.057359,0.374116,0.188959,0.205763,0.374118,0.000000,0.000000,
309194449,-0.049666,16.760536,5,-0.251221,-0.508972,0.116455,-0.815002,8.620000,0.340000,5.740000,1.185152,-0.346977,0.486950,0.175942,0.193678,0.456717,0.000000,0.000000,
309203895,0.507829,16.760536,5,-0.247803,-0.508179,0.116577,-0.816528,8.810000,-0.050000,4.520000,0.338991,0.561823,0.080498,0.199085,0.218702,0.181305,0.000000,0.000000,
309213658,0.043352,16.755893,5,-0.244629,-0.507629,0.116516,-0.817871,9.120000,0.240000,4.650000,0.144080,0.316782,0.431974,0.191254,0.211526,0.364807,0.000000,0.000000,
309224572,-0.608168,16.769823,5,-0.241333,-0.507080,0.116577,-0.819153,8.890000,-0.030000,4.690000,0.363539,0.439238,0.239547,0.142234,0.155807,0.273110,0.000000,0.000000,
309234009,0.043352,16.765180,5,-0.238281,-0.506531,0.116638,-0.820374,9.290000,0.420000,4.630000,-0.087487,0.167561,0.588257,0.137391,0.154199,0.503814,0.000000,0.000000,
309243736,0.043352,16.765180,5,-0.235596,-0.505981,0.116333,-0.821533,8.730000,0.340000,4.460000,0.006676,0.135677,0.006730,0.132841,0.147391,0.139923,0.000000,0.000000,
309254834,-0.329176,16.765180,5,-0.232971,-0.505493,0.116089,-0.822632,8.980000,0.030000,3.810000,-0.473711,0.732677,-0.084726,0.104797,0.112848,-0.024531,0.000000,0.000000,
309264103,-0.143172,16.774467,5,-0.230408,-0.504944,0.115967,-0.823730,9.190000,0.010000,3.790000,-0.585933,0.789795,0.087898,0.089924,0.095512,0.057772,0.000000,0.000000,
309273954,0.321825,16.760536,5,-0.227844,-0.504272,0.115906,-0.824829,8.810000,0.130000,5.490000,0.796322,-0.150856,0.551274,0.105785,0.117839,0.419040,0.000000,0.000000,
309284696,0.136339,16.760536,5,-0.225403,-0.503601,0.115967,-0.825928,9.350000,0.170000,5.030000,0.183541,0.125187,0.814157,0.109072,0.128711,0.708286,0.000000,0.000000,
309294285,-0.049666,16.760536,5,-0.223083,-0.502930,0.116089,-0.826965,8.890000,0.510000,5.740000,0.716891,-0.599736,0.751624,0.100151,0.124313,0.740012,0.000000,0.000000,
309304011,-0.049666,16.760536,5,-0.221008,-0.502258,0.116150,-0.827881,8.790000,0.420000,5.230000,0.380954,-0.344059,0.427309,0.091761,0.117535,0.511097,0.000000,0.000000,
309315137,0.414842,16.765180,5,-0.219177,-0.501648,0.116211,-0.828735,9.120000,0.340000,5.460000,0.444573,-0.308974,0.820847,0.113869,0.150063,0.737850,0.000000,0.000000,
309324411,-0.049666,16.760536,5,-0.217468,-0.501160,0.116333,-0.829468,9.380000,0.210000,4.540000,-0.338629,0.235799,0.618980,0.104782,0.143778,0.650831,0.000000,0.000000,
309334301,0.043352,16.765180,5,-0.215881,-0.500549,0.116516,-0.830200,8.900000,-0.030000,4.770000,0.130434,0.221323,0.294268,0.102267,0.142235,0.389808,0.000000,0.000000,
309345066,0.414842,16.765180,5,-0.214355,-0.499939,0.116821,-0.830933,8.900000,0.150000,3.790000,-0.747119,0.442990,-0.160136,0.123830,0.163395,-0.012779,0.000000,0.000000,
309354566,0.414842,16.755893,5,-0.212891,-0.499390,0.117310,-0.831604,8.900000,-0.110000,5.130000,0.403587,0.111109,0.464951,0.144099,0.189208,0.336944,0.000000,0.000000,
309364258,0.414842,16.755893,5,-0.211609,-0.498840,0.117859,-0.832153,8.900000,0.030000,5.380000,0.509885,-0.136876,0.582392,0.163326,0.214566,0.516625,0.000000,0.000000,
309375255,0.228838,16.755893,5,-0.210510,-0.498291,0.118408,-0.832703,9.100000,-0.070000,5.950000,0.896120,-0.245535,1.033096,0.169967,0.230506,0.894708,0.000000,0.000000,
309384627,-0.142653,16.765180,5,-0.209595,-0.497681,0.118896,-0.833252,9.460000,-0.440000,5.110000,0.245336,0.492373,0.942487,0.152110,0.216519,0.929685,0.000000,0.000000,
309394497,0.600847,16.755893,5,-0.208557,-0.497009,0.119507,-0.833801,8.200000,0.440000,5.320000,0.497698,-0.681373,-0.051748,0.182977,0.248678,0.211226,0.000000,0.000000,
309406215,0.043352,16.755893,5,-0.207703,-0.496460,0.120178,-0.834229,9.900000,-0.490000,4.380000,-0.524730,0.892934,0.986396,0.177019,0.249703,0.778690,0.000000,0.000000,
309415235,0.136339,16.751250,5,-0.206726,-0.496155,0.121033,-0.834534,8.810000,0.260000,5.380000,0.345451,-0.439548,0.506421,0.176667,0.251128,0.579375,0.000000,0.000000,
309424823,0.228838,16.755893,5,-0.205933,-0.495667,0.121887,-0.834900,8.850000,-0.650000,5.190000,0.584827,0.427487,0.458521,0.182438,0.259323,0.490904,0.000000,0.000000,
309436681,0.507829,16.751250,5,-0.205017,-0.495300,0.122986,-0.835205,8.830000,-0.450000,4.730000,0.111186,0.392802,0.217202,0.206418,0.285690,0.290540,0.000000,0.000000,
309445567,0.136339,16.751250,5,-0.204224,-0.494934,0.124146,-0.835449,8.310000,-0.670000,5.590000,1.102409,0.121384,0.175281,0.204456,0.282031,0.206165,0.000000,0.000000,
309455203,0.321825,16.751250,5,-0.203613,-0.494446,0.125305,-0.835693,8.870000,-0.150000,5.280000,0.371254,-0.108969,0.515748,0.214735,0.295536,0.432796,0.000000,0.000000,
309465981,0.414842,16.755893,5,-0.203064,-0.494019,0.126465,-0.835876,8.770000,-0.470000,5.780000,0.935322,-0.080918,0.671417,0.230805,0.317225,0.607479,0.000000,0.000000,
309475411,0.321825,16.760536,5,-0.202515,-0.493530,0.127625,-0.836121,8.290000,-0.490000,5.000000,0.532888,0.128797,-0.122915,0.239604,0.322502,0.072793,0.000000,0.000000,
309485025,-0.328139,16.755893,5,-0.202026,-0.493408,0.128906,-0.836121,8.540000,-0.610000,5.300000,0.703613,0.145552,0.242739,0.206341,0.283620,0.197202,0.000000,0.000000,
309496137,-0.142653,16.755893,5,-0.201660,-0.493347,0.130066,-0.836060,8.710000,-0.220000,5.420000,0.527304,-0.241487,0.442409,0.187150,0.263172,0.376706,0.000000,0.000000,
309505595,0.136339,16.751250,5,-0.201599,-0.493103,0.131042,-0.836121,8.640000,-0.670000,5.260000,0.638731,0.198820,0.313287,0.186391,0.262411,0.330280,0.000000,0.000000,
309515360,0.414842,16.746606,5,-0.201355,-0.492798,0.132202,-0.836121,8.640000,-0.440000,5.240000,0.501669,-0.023832,0.298916,0.203607,0.281910,0.307320,0.000000,0.000000,
309526103,0.043352,16.755893,5,-0.200928,-0.492493,0.133423,-0.836243,8.660000,-0.450000,5.190000,0.449450,-0.008464,0.292794,0.196377,0.273451,0.296686,0.000000,0.000000,
309535592,0.228838,16.755893,5,-0.200439,-0.492249,0.134644,-0.836304,8.660000,-0.490000,5.090000,0.384560,0.037500,0.250421,0.201063,0.278177,0.262818,0.000000,0.000000,
309545348,-0.049666,16.751250,5,-0.199951,-0.491943,0.135925,-0.836365,8.790000,-0.630000,5.070000,0.363715,0.168382,0.358819,0.187736,0.263507,0.333095,0.000000,0.000000,
309555856,0.228838,16.755893,5,-0.199463,-0.491638,0.137085,-0.836487,8.790000,-0.630000,5.000000,0.300222,0.179576,0.325451,0.193156,0.269901,0.327499,0.000000,0.000000,
309565562,-0.142653,16.746606,5,-0.198853,-0.491394,0.138306,-0.836548,8.660000,-0.900000,4.940000,0.423257,0.390508,0.192114,0.174263,0.247383,0.228390,0.000000,0.000000,
309575518,0.136339,16.751250,5,-0.198242,-0.491150,0.139465,-0.836670,8.830000,-0.450000,4.940000,0.128184,0.008360,0.324498,0.174316,0.247866,0.298746,0.000000,0.000000,
309586261,0.043352,16.755893,5,-0.197632,-0.490845,0.140686,-0.836792,8.810000,-0.760000,4.860000,0.206582,0.285074,0.280458,0.168602,0.241409,0.285359,0.000000,0.000000,
309595811,0.507829,16.751250,5,-0.197021,-0.490540,0.141785,-0.836914,9.000000,-0.470000,4.940000,0.029225,0.005808,0.480944,0.192681,0.270699,0.428537,0.000000,0.000000,
309605285,0.507829,16.751250,5,-0.196472,-0.490234,0.142822,-0.837097,8.920000,-0.800000,4.980000,0.239934,0.245873,0.444412,0.215442,0.297731,0.440158,0.000000,0.000000,
309615004,0.043352,16.746606,5,-0.195923,-0.489868,0.143799,-0.837219,8.830000,-0.910000,5.010000,0.344412,0.294445,0.385054,0.207345,0.289059,0.399819,0.000000,0.000000,
309623608,0.321825,16.751250,5,-0.195435,-0.489441,0.144714,-0.837402,8.830000,-0.820000,5.010000,0.287632,0.187890,0.379931,0.217154,0.300567,0.385260,0.000000,0.000000,
309631590,0.600847,16.746606,5,-0.195435,-0.489441,0.144714,-0.837402,8.830000,-0.860000,4.960000,0.258854,0.227206,0.357001,0.243966,0.330809,0.364573,0.000000,0.000000,
309640482,0.321825,16.760536,5,-0.195007,-0.489014,0.145691,-0.837585,8.810000,-0.900000,4.920000,0.234140,0.264002,0.326123,0.251856,0.339211,0.336425,0.000000,0.000000,
309648730,0.228838,16.755893,5,-0.194641,-0.488647,0.146545,-0.837769,8.810000,-0.840000,4.940000,0.211492,0.184240,0.332002,0.253210,0.340332,0.333187,0.000000,0.000000,
309657590,0.600847,16.755893,5,-0.194275,-0.488281,0.147400,-0.837952,8.920000,-0.990000,5.070000,0.321848,0.261437,0.498687,0.278178,0.368923,0.454341,0.000000,0.000000,
309667812,0.414842,16.755893,5,-0.193909,-0.487915,0.148193,-0.838074,8.770000,-1.130000,5.050000,0.439173,0.365584,0.366834,0.290586,0.382180,0.390281,0.000000,0.000000,
309676746,0.321825,16.751250,5,-0.193542,-0.487549,0.148926,-0.838257,8.900000,-0.930000,5.030000,0.266502,0.212149,0.459211,0.295991,0.388475,0.440741,0.000000,0.000000,
309686338,0.043352,16.755893,5,-0.193054,-0.487122,0.149780,-0.838440,8.660000,-1.010000,5.000000,0.367399,0.240837,0.243315,0.283799,0.373295,0.296215,0.000000,0.000000,
309697242,0.507829,16.751250,5,-0.192505,-0.486694,0.150757,-0.838684,8.660000,-0.990000,5.030000,0.366338,0.183156,0.255476,0.302026,0.391663,0.266392,0.000000,0.000000,
309706733,-0.421126,16.751250,5,-0.191956,-0.486267,0.151733,-0.838867,8.560000,-1.010000,5.110000,0.471930,0.129862,0.207436,0.260037,0.342892,0.223233,0.000000,0.000000,
309716459,0.507829,16.751250,5,-0.191406,-0.485962,0.152649,-0.838989,8.690000,-0.880000,5.230000,0.428473,-0.031440,0.377786,0.279058,0.363942,0.336374,0.000000,0.000000,
309726789,0.228838,16.755893,5,-0.190979,-0.485657,0.153503,-0.839111,8.670000,-1.050000,5.320000,0.575683,0.056535,0.414844,0.279665,0.364689,0.393818,0.000000,0.000000,
309735940,0.136339,16.751250,5,-0.190674,-0.485291,0.154175,-0.839233,8.580000,-1.140000,5.300000,0.626477,0.115428,0.327665,0.273943,0.357557,0.345391,0.000000,0.000000,
309745665,0.136339,16.751250,5,-0.190491,-0.485046,0.154663,-0.839355,8.540000,-0.950000,5.150000,0.437289,-0.000992,0.206098,0.268721,0.349893,0.243421,0.000000,0.000000,
309756256,0.414842,16.746606,5,-0.190308,-0.484741,0.155151,-0.839478,8.620000,-0.950000,5.170000,0.410893,-0.005428,0.285192,0.281699,0.363193,0.273999,0.000000,0.000000,
309765862,0.136339,16.751250,5,-0.190125,-0.484436,0.155579,-0.839661,8.710000,-0.930000,5.240000,0.403518,-0.046384,0.404262,0.275996,0.356798,0.369358,0.000000,0.000000,
309775536,0.136339,16.741963,5,-0.190002,-0.484131,0.155884,-0.839783,8.730000,-1.110000,5.170000,0.413601,0.141859,0.396631,0.270614,0.350739,0.389323,0.000000,0.000000,
309785235,-0.142653,16.746606,5,-0.189941,-0.483826,0.156128,-0.839905,8.750000,-0.990000,5.210000,0.377850,0.021670,0.424332,0.247838,0.325562,0.414951,0.000000,0.000000,
309793786,0.043352,16.746606,5,-0.189880,-0.483643,0.156311,-0.839966,8.640000,-1.050000,5.110000,0.376443,0.091616,0.284224,0.237681,0.313453,0.319252,0.000000,0.000000,
309801360,0.136339,16.741963,5,-0.189880,-0.483643,0.156311,-0.839966,8.580000,-1.110000,5.190000,0.480371,0.104722,0.279199,0.233668,0.308417,0.289931,0.000000,0.000000,
309810984,-0.235640,16.751250,5,-0.189819,-0.483521,0.156433,-0.840027,8.520000,-1.130000,5.230000,0.547418,0.094316,0.247998,0.207098,0.278193,0.259234,0.000000,0.000000,
309819719,-0.049666,16.751250,5,-0.189880,-0.483521,0.156372,-0.840088,8.480000,-1.260000,5.190000,0.596904,0.219820,0.204037,0.193377,0.262088,0.218827,0.000000,0.000000,
309828306,0.786852,16.746606,5,-0.189880,-0.483459,0.156372,-0.840088,8.710000,-1.140000,5.230000,0.464645,0.135045,0.414444,0.232927,0.306817,0.362028,0.000000,0.000000,
309838591,-0.514143,16.746606,5,-0.189880,-0.483459,0.156311,-0.840088,8.920000,-1.070000,5.420000,0.478111,0.024052,0.683833,0.189196,0.262149,0.597606,0.000000,0.000000,
309847727,0.043352,16.746606,5,-0.189819,-0.483398,0.156250,-0.840149,8.870000,-1.220000,5.360000,0.526352,0.174417,0.623153,0.182449,0.257712,0.616308,0.000000,0.000000,
309857188,0.321825,16.751250,5,-0.189819,-0.483276,0.156128,-0.840271,8.830000,-1.030000,5.210000,0.342385,0.067796,0.500777,0.193666,0.272128,0.531734,0.000000,0.000000,
309868229,0.321825,16.751250,5,-0.189758,-0.483215,0.156067,-0.840332,8.620000,-1.160000,5.030000,0.364658,0.227130,0.240927,0.204747,0.283818,0.318848,0.000000,0.000000,
309877468,-0.607130,16.751250,5,-0.189636,-0.483276,0.155884,-0.840332,8.620000,-1.180000,4.940000,0.306195,0.284953,0.198830,0.156168,0.228563,0.230989,0.000000,0.000000,
309887406,-0.421126,16.751250,5,-0.189636,-0.483459,0.155640,-0.840271,8.710000,-1.030000,4.940000,0.199073,0.177095,0.266086,0.122035,0.190691,0.256682,0.000000,0.000000,
309897969,0.228838,16.746606,5,-0.189697,-0.483643,0.155273,-0.840271,8.690000,-1.050000,5.000000,0.267653,0.173716,0.279819,0.130815,0.201163,0.273619,0.000000,0.000000,
309907646,0.414842,16.746606,5,-0.189880,-0.483765,0.154724,-0.840210,8.640000,-1.240000,4.940000,0.339245,0.368176,0.222125,0.150742,0.223446,0.235923,0.000000,0.000000,
309917344,-0.142653,16.746606,5,-0.190002,-0.483826,0.154114,-0.840271,8.770000,-1.090000,5.000000,0.259102,0.240903,0.353454,0.134360,0.206053,0.321962,0.000000,0.000000,
309928348,-0.328139,16.746606,5,-0.190063,-0.484009,0.153442,-0.840271,8.710000,-1.200000,4.980000,0.320215,0.350130,0.295064,0.107319,0.176447,0.302271,0.000000,0.000000,
309937745,0.694383,16.732676,5,-0.190063,-0.484192,0.152832,-0.840271,9.000000,-1.070000,5.000000,0.153666,0.281374,0.553176,0.146283,0.223830,0.485946,0.000000,0.000000,
309947389,-0.607130,16.741963,5,-0.190002,-0.484436,0.152283,-0.840271,9.120000,-0.910000,5.010000,0.040885,0.164212,0.642866,0.100658,0.176100,0.600819,0.000000,0.000000,
309957499,0.136339,16.741963,5,-0.189880,-0.484741,0.151733,-0.840210,9.230000,-0.910000,5.150000,0.101501,0.130936,0.807128,0.104752,0.186789,0.751848,0.000000,0.000000,
309967400,0.414842,16.737320,5,-0.189880,-0.484985,0.151123,-0.840149,9.150000,-1.030000,5.110000,0.168834,0.250124,0.726844,0.126343,0.216247,0.733544,0.000000,0.000000,
309977164,0.228838,16.737320,5,-0.189819,-0.485168,0.150574,-0.840149,9.080000,-0.970000,5.240000,0.276316,0.137753,0.724952,0.135005,0.230694,0.727254,0.000000,0.000000,
309987927,-0.421126,16.741963,5,-0.189575,-0.485291,0.150146,-0.840271,9.020000,-0.950000,5.170000,0.241334,0.140899,0.637274,0.102121,0.197580,0.661384,0.000000,0.000000,
309997589,0.136339,16.741963,5,-0.189148,-0.485352,0.149841,-0.840332,8.980000,-0.880000,5.240000,0.284845,0.050789,0.632122,0.106239,0.206158,0.639963,0.000000,0.000000,
310007529,0.414842,16.737320,5,-0.188599,-0.485291,0.149719,-0.840576,9.000000,-0.910000,5.260000,0.299759,0.063412,0.660781,0.127989,0.235049,0.655203,0.000000,0.000000,
310017567,-0.235640,16.741963,5,-0.188049,-0.485168,0.149658,-0.840759,8.980000,-0.910000,5.360000,0.376883,0.020997,0.687110,0.107198,0.215616,0.678561,0.000000,0.000000,
310026265,-0.142653,16.737320,5,-0.187500,-0.484985,0.149536,-0.841003,8.980000,-0.900000,5.460000,0.438570,-0.038063,0.743174,0.093188,0.203985,0.725861,0.000000,0.000000,
310034656,-0.235640,16.741963,5,-0.187073,-0.484802,0.149475,-0.841187,8.900000,-0.880000,5.460000,0.465758,-0.069153,0.672299,0.074032,0.185941,0.686651,0.000000,0.000000,
310043370,0.228838,16.737320,5,-0.187073,-0.484802,0.149475,-0.841187,8.750000,-0.800000,5.470000,0.497967,-0.165443,0.535961,0.085478,0.201669,0.576338,0.000000,0.000000,
310051584,0.321825,16.741963,5,-0.186707,-0.484558,0.149353,-0.841431,8.690000,-0.780000,5.460000,0.491780,-0.191456,0.480928,0.102086,0.222385,0.506493,0.000000,0.000000,
310060313,-0.049666,16.732676,5,-0.186401,-0.484253,0.149231,-0.841736,8.540000,-0.740000,5.510000,0.580399,-0.273505,0.372223,0.094470,0.214968,0.408200,0.000000,0.000000,
310070132,0.043352,16.746606,5,-0.186096,-0.483887,0.149048,-0.842041,8.290000,-0.950000,5.490000,0.769183,-0.116231,0.155512,0.093360,0.212994,0.223220,0.000000,0.000000,
310079091,0.228838,16.746606,5,-0.185730,-0.483704,0.148987,-0.842224,8.140000,-0.970000,5.490000,0.847751,-0.123300,0.026858,0.103801,0.222728,0.079473,0.000000,0.000000,
310088639,0.600847,16.746606,5,-0.185364,-0.483398,0.148926,-0.842468,8.350000,-0.860000,5.440000,0.652994,-0.170614,0.185899,0.137250,0.259324,0.157383,0.000000,0.000000,
310099544,0.507829,16.732676,5,-0.184998,-0.483154,0.148926,-0.842712,8.480000,-0.860000,5.420000,0.569808,-0.135517,0.284704,0.163484,0.288384,0.250588,0.000000,0.000000,
310108945,0.136339,16.741963,5,-0.184753,-0.482971,0.149048,-0.842834,8.540000,-0.860000,5.380000,0.506850,-0.117088,0.316840,0.164496,0.289458,0.299088,0.000000,0.000000,
310118519,-0.142653,16.737320,5,-0.184692,-0.482910,0.149231,-0.842896,8.770000,-0.800000,5.360000,0.357230,-0.123405,0.502651,0.147885,0.272515,0.448107,0.000000,0.000000,
310130589,0.600847,16.737320,5,-0.184753,-0.482849,0.149475,-0.842834,8.920000,-0.840000,5.490000,0.399608,-0.127990,0.698808,0.179945,0.312899,0.631633,0.000000,0.000000,
310139440,0.136339,16.741963,5,-0.184937,-0.482788,0.149780,-0.842773,8.960000,-0.880000,5.530000,0.429426,-0.103569,0.756086,0.179980,0.316533,0.722739,0.000000,0.000000,
310149005,0.321825,16.732676,5,-0.185120,-0.482666,0.150146,-0.842712,8.900000,-0.880000,5.470000,0.411630,-0.088312,0.674656,0.192037,0.333158,0.687540,0.000000,0.000000,
310160611,-0.142653,16.737320,5,-0.185303,-0.482605,0.150635,-0.842651,8.710000,-0.880000,5.380000,0.422561,-0.099564,0.464036,0.174645,0.314674,0.523924,0.000000,0.000000,
310169479,0.228838,16.728033,5,-0.185547,-0.482483,0.151123,-0.842590,8.520000,-0.990000,5.340000,0.530972,-0.017170,0.287715,0.180888,0.321022,0.351007,0.000000,0.000000,
310178961,0.043352,16.737320,5,-0.185791,-0.482361,0.151672,-0.842529,8.540000,-0.950000,5.380000,0.533462,-0.067343,0.321716,0.175199,0.314144,0.329565,0.000000,0.000000,
310190052,0.043352,16.737320,5,-0.186157,-0.482239,0.152283,-0.842407,8.670000,-0.970000,5.420000,0.507606,-0.055166,0.455084,0.170319,0.309633,0.421452,0.000000,0.000000,
310199534,0.043352,16.737320,5,-0.186768,-0.481995,0.152832,-0.842285,8.690000,-0.970000,5.360000,0.452750,-0.026558,0.443297,0.165180,0.304609,0.437444,0.000000,0.000000,
310209298,-0.328139,16.737320,5,-0.187439,-0.481812,0.153381,-0.842102,8.690000,-1.030000,5.280000,0.415482,0.051747,0.408150,0.136727,0.272789,0.415999,0.000000,0.000000,
310219755,0.694383,16.732676,5,-0.188049,-0.481750,0.154053,-0.841919,8.660000,-0.930000,5.190000,0.322779,-0.007180,0.335205,0.175171,0.316780,0.356854,0.000000,0.000000,
310229332,0.414842,16.737320,5,-0.188660,-0.481750,0.154663,-0.841675,8.730000,-1.030000,5.260000,0.384981,0.052238,0.437222,0.193526,0.338450,0.415687,0.000000,0.000000,
310238016,-0.049666,16.732676,5,-0.189148,-0.481934,0.155212,-0.841370,8.690000,-1.240000,5.320000,0.554770,0.198507,0.452929,0.180984,0.324699,0.442950,0.000000,0.000000,
310247471,0.228838,16.737320,5,-0.189575,-0.482117,0.155701,-0.841064,8.670000,-1.320000,5.170000,0.493884,0.329553,0.359972,0.187113,0.331570,0.382206,0.000000,0.000000,
310256093,0.228838,16.737320,5,-0.189758,-0.482361,0.156311,-0.840759,8.790000,-1.200000,5.050000,0.295083,0.283663,0.400694,0.192638,0.338038,0.395740,0.000000,0.000000,
310264712,0.600847,16.737320,5,-0.189758,-0.482361,0.156311,-0.840759,8.830000,-1.110000,5.050000,0.246433,0.205133,0.424485,0.221444,0.370935,0.416783,0.000000,0.000000,
310273985,-0.235640,16.741963,5,-0.189941,-0.482605,0.156921,-0.840454,8.900000,-1.180000,4.920000,0.152565,0.322565,0.432156,0.195971,0.342409,0.428037,0.000000,0.000000,
310282231,-0.235640,16.741963,5,-0.190125,-0.483032,0.157532,-0.840088,8.900000,-1.130000,4.840000,0.076927,0.299006,0.384961,0.171537,0.314906,0.396503,0.000000,0.000000,
310291102,0.414842,16.737320,5,-0.190186,-0.483459,0.158081,-0.839722,8.960000,-1.180000,4.690000,-0.031797,0.415307,0.374079,0.189685,0.335375,0.380087,0.000000,0.000000,
310301316,0.136339,16.741963,5,-0.190125,-0.483948,0.158569,-0.839355,8.920000,-1.160000,4.480000,-0.180305,0.485235,0.236970,0.189755,0.334104,0.275318,0.000000,0.000000,
310310287,0.600847,16.737320,5,-0.190063,-0.484375,0.159058,-0.839050,8.920000,-1.160000,4.420000,-0.210201,0.492677,0.208916,0.218691,0.365004,0.226709,0.000000,0.000000,
310319925,0.228838,16.737320,5,-0.190002,-0.484680,0.159363,-0.838806,9.020000,-0.950000,4.460000,-0.325032,0.306715,0.298478,0.222865,0.368587,0.279248,0.000000,0.000000,
310330825,0.043352,16.737320,5,-0.189941,-0.484985,0.159668,-0.838562,8.920000,-1.010000,4.420000,-0.268626,0.354693,0.193402,0.215550,0.358059,0.216404,0.000000,0.000000,
310340268,-0.421126,16.741963,5,-0.189819,-0.485352,0.159729,-0.838379,8.870000,-1.070000,4.380000,-0.239923,0.412587,0.140712,0.178646,0.313991,0.160994,0.000000,0.000000,
310349969,0.043352,16.746606,5,-0.189819,-0.485779,0.159607,-0.838196,9.020000,-0.740000,4.400000,-0.441887,0.134053,0.259093,0.173145,0.306866,0.232807,0.000000,0.000000,
310360782,0.414842,16.737320,5,-0.189880,-0.486206,0.159180,-0.837952,8.830000,-1.070000,4.420000,-0.174634,0.390533,0.121863,0.191788,0.325459,0.151590,0.000000,0.000000,
310370147,-0.142653,16.728033,5,-0.189941,-0.486755,0.158508,-0.837769,9.100000,-0.950000,4.460000,-0.311523,0.315762,0.373142,0.173635,0.304963,0.313777,0.000000,0.000000,
310380077,0.321825,16.732676,5,-0.190002,-0.487305,0.157654,-0.837585,9.310000,-0.440000,4.670000,-0.474197,-0.175705,0.609594,0.186109,0.321638,0.530330,0.000000,0.000000,
310390681,-0.235640,16.741963,5,-0.190002,-0.488525,0.156677,-0.837097,8.660000,-1.240000,4.290000,-0.061576,0.597285,-0.075545,0.162686,0.290604,0.086799,0.000000,0.000000,
310400325,0.600847,16.737320,5,-0.189697,-0.489319,0.155701,-0.836853,8.480000,-0.860000,4.190000,-0.214887,0.289217,-0.312368,0.193342,0.319245,-0.205411,0.000000,0.000000,
310410190,-0.235640,16.741963,5,-0.189209,-0.490112,0.154724,-0.836670,8.830000,-0.820000,4.480000,-0.158334,0.186546,0.134614,0.169206,0.289514,0.043505,0.000000,0.000000,
310421153,-0.049666,16.732676,5,-0.188782,-0.490601,0.153809,-0.836670,9.060000,-0.570000,4.570000,-0.295662,-0.019862,0.353822,0.158458,0.277439,0.270673,0.000000,0.000000,
310430505,0.136339,16.741963,5,-0.188171,-0.490784,0.152954,-0.836853,9.130000,-0.220000,4.610000,-0.454418,-0.326261,0.410061,0.159665,0.279707,0.372712,0.000000,0.000000,
310440457,0.043352,16.746606,5,-0.187439,-0.490845,0.152161,-0.837158,8.870000,-0.530000,4.540000,-0.251769,-0.063503,0.179438,0.155031,0.273035,0.231226,0.000000,0.000000,
310451324,-0.142653,16.737320,5,-0.186646,-0.490845,0.151184,-0.837463,8.830000,-0.130000,4.610000,-0.367531,-0.441647,0.145339,0.138984,0.252936,0.168352,0.000000,0.000000,
310460833,0.507829,16.732676,5,-0.185791,-0.490845,0.150208,-0.837830,8.500000,-0.170000,4.610000,-0.199916,-0.461088,-0.141421,0.164958,0.278570,-0.058417,0.000000,0.000000,
310471625,0.415361,16.728033,5,-0.184814,-0.490784,0.149292,-0.838257,8.520000,-0.300000,4.670000,-0.105340,-0.355870,-0.090295,0.183982,0.295935,-0.081753,0.000000,0.000000,
310481129,0.136339,16.732676,5,-0.183777,-0.490784,0.148254,-0.838684,8.310000,-0.570000,4.670000,0.105249,-0.135743,-0.251198,0.183726,0.289994,-0.205795,0.000000,0.000000,
310490720,0.321825,16.732676,5,-0.182678,-0.490784,0.147278,-0.839111,8.270000,-0.760000,4.670000,0.209538,0.027002,-0.273277,0.195329,0.297509,-0.255195,0.000000,0.000000,
310501821,-0.328139,16.737320,5,-0.181702,-0.490784,0.146301,-0.839478,8.270000,-0.280000,4.670000,-0.009057,-0.387261,-0.309606,0.165078,0.255739,-0.295026,0.000000,0.000000,
310511057,0.321825,16.732676,5,-0.180725,-0.490662,0.145386,-0.839905,8.430000,-0.570000,4.770000,0.113971,-0.139293,-0.098010,0.177491,0.266482,-0.150800,0.000000,0.000000,
310520901,0.694383,16.732676,5,-0.179810,-0.490479,0.144653,-0.840332,8.540000,-0.840000,4.690000,0.122533,0.153351,-0.021599,0.213221,0.304237,-0.056218,0.000000,0.000000,
310531658,0.228838,16.737320,5,-0.178772,-0.490173,0.144104,-0.840820,8.640000,-0.950000,4.800000,0.197974,0.227800,0.130022,0.217509,0.306733,0.080119,0.000000,0.000000,
310541203,0.043352,16.737320,5,-0.177795,-0.489868,0.143616,-0.841309,8.660000,-0.970000,4.790000,0.177130,0.248710,0.138819,0.209275,0.295222,0.123090,0.000000,0.000000,
310550956,-0.235640,16.732676,5,-0.176819,-0.489502,0.143372,-0.841797,8.940000,-0.400000,5.030000,-0.028256,-0.311650,0.464223,0.183671,0.267018,0.372817,0.000000,0.000000,
310561960,-0.235640,16.732676,5,-0.175903,-0.489075,0.143188,-0.842224,8.600000,-1.260000,5.010000,0.475696,0.409983,0.211197,0.159714,0.238589,0.254503,0.000000,0.000000,
310571308,0.228838,16.728033,5,-0.174988,-0.488647,0.143127,-0.842651,8.960000,-1.700000,5.240000,0.661226,0.763282,0.671414,0.166427,0.250124,0.559703,0.000000,0.000000,
310581185,0.973405,16.728033,5,-0.173950,-0.488220,0.143311,-0.843079,9.290000,-1.620000,5.530000,0.687276,0.605069,1.093980,0.220727,0.320307,0.950821,0.000000,0.000000,
310591933,0.043352,16.737320,5,-0.172974,-0.487732,0.143799,-0.843506,9.380000,-1.640000,5.670000,0.738772,0.566003,1.246080,0.212866,0.320581,1.166965,0.000000,0.000000,
310601535,0.415361,16.728033,5,-0.171997,-0.487244,0.144592,-0.843872,9.380000,-1.470000,5.650000,0.626702,0.396711,1.218724,0.229006,0.347258,1.204855,0.000000,0.000000,
310611262,-0.142653,16.737320,5,-0.170837,-0.486633,0.145691,-0.844238,9.170000,-1.700000,5.440000,0.641359,0.630981,0.961107,0.208572,0.329217,1.026419,0.000000,0.000000,
310622249,-0.328139,16.737320,5,-0.169495,-0.485962,0.146973,-0.844666,9.690000,-1.800000,5.720000,0.627540,0.656059,1.562756,0.177830,0.306743,1.419045,0.000000,0.000000,
310631663,0.228838,16.737320,5,-0.168091,-0.485291,0.148315,-0.845154,9.290000,-1.640000,5.840000,0.818800,0.366112,1.259122,0.184045,0.322317,1.301973,0.000000,0.000000,
310641615,-0.328139,16.728033,5,-0.166504,-0.484436,0.149719,-0.845703,8.900000,-1.700000,5.820000,0.976441,0.332292,0.918802,0.154401,0.293757,1.021472,0.000000,0.000000,
310652374,-0.235640,16.732676,5,-0.164795,-0.483459,0.151184,-0.846313,8.960000,-1.890000,5.590000,0.818830,0.574202,0.881585,0.132546,0.274564,0.919068,0.000000,0.000000,
310661982,0.043352,16.737320,5,-0.163025,-0.482239,0.152649,-0.847107,8.870000,-1.600000,5.990000,1.008395,0.093713,0.973385,0.129498,0.277335,0.958831,0.000000,0.000000,
310671427,0.043352,16.737320,5,-0.161255,-0.481079,0.154053,-0.847839,8.660000,-1.660000,5.920000,1.032107,0.114530,0.769964,0.126615,0.278238,0.820571,0.000000,0.000000,
310681288,-0.235640,16.741963,5,-0.159607,-0.479736,0.155396,-0.848633,8.730000,-1.740000,5.900000,0.983599,0.171690,0.833239,0.106161,0.259861,0.829844,0.000000,0.000000,
310689892,0.228838,16.728033,5,-0.158020,-0.478516,0.156616,-0.849426,8.750000,-1.830000,5.840000,0.920454,0.253812,0.838180,0.116284,0.276072,0.835947,0.000000,0.000000,
310698532,-0.514143,16.737320,5,-0.156494,-0.477295,0.157715,-0.850159,8.790000,-1.550000,5.950000,0.827549,-0.067418,0.891738,0.078456,0.237956,0.876789,0.000000,0.000000,
310707015,0.507829,16.741963,5,-0.156494,-0.477295,0.157715,-0.850159,8.730000,-2.030000,5.720000,0.847758,0.424684,0.790852,0.107833,0.275624,0.813879,0.000000,0.000000,
310714936,0.694383,16.732676,5,-0.154907,-0.476074,0.158875,-0.850952,8.790000,-1.800000,5.990000,0.883408,0.074690,0.944994,0.147254,0.325079,0.909862,0.000000,0.000000,
310723757,-0.142653,16.746606,5,-0.153137,-0.474792,0.160217,-0.851746,8.710000,-1.640000,5.780000,0.665009,-0.022993,0.753617,0.131812,0.311256,0.795483,0.000000,0.000000,
310733911,0.228838,16.746606,5,-0.151367,-0.473755,0.161621,-0.852356,8.620000,-1.700000,5.700000,0.637821,0.023731,0.653542,0.141138,0.324781,0.691575,0.000000,0.000000,
310742780,0.136339,16.741963,5,-0.149719,-0.472839,0.163086,-0.852905,8.230000,-1.780000,5.700000,0.866734,0.054923,0.332884,0.143716,0.327310,0.428995,0.000000,0.000000,
310752283,0.228838,16.746606,5,-0.148010,-0.472107,0.164673,-0.853271,8.430000,-1.600000,5.650000,0.626846,-0.111334,0.457341,0.152225,0.337647,0.449745,0.000000,0.000000,
310762864,0.136339,16.741963,5,-0.146606,-0.471375,0.166016,-0.853699,8.310000,-1.760000,5.490000,0.610083,0.053203,0.301996,0.154806,0.339771,0.341585,0.000000,0.000000,
310772423,-0.142653,16.737320,5,-0.145325,-0.471008,0.167358,-0.853821,8.460000,-1.720000,5.460000,0.477284,0.006793,0.404166,0.139242,0.322542,0.387398,0.000000,0.000000,
310782305,0.228838,16.737320,5,-0.144470,-0.470764,0.168518,-0.853882,8.430000,-1.700000,5.230000,0.302370,0.064629,0.258062,0.148111,0.331454,0.292718,0.000000,0.000000,
310793249,0.136339,16.751250,5,-0.143860,-0.470642,0.169617,-0.853821,8.440000,-1.760000,5.260000,0.339393,0.074866,0.291554,0.151009,0.333808,0.291866,0.000000,0.000000,
310802716,0.043352,16.737320,5,-0.143250,-0.470581,0.170654,-0.853760,8.270000,-1.890000,5.300000,0.496562,0.142786,0.192706,0.147335,0.327878,0.219276,0.000000,0.000000,
310812456,-0.049666,16.741963,5,-0.142578,-0.470520,0.171814,-0.853638,8.200000,-1.820000,5.340000,0.529776,0.025132,0.142701,0.138020,0.315153,0.163219,0.000000,0.000000,
310823540,0.414842,16.737320,5,-0.141907,-0.470520,0.173096,-0.853516,8.140000,-1.720000,5.150000,0.376406,-0.010823,-0.017072,0.159118,0.334872,0.031237,0.000000,0.000000,
310833014,0.136339,16.741963,5,-0.141113,-0.470581,0.174438,-0.853333,7.450000,-2.330000,4.960000,0.832484,0.535413,-0.598769,0.160788,0.327341,-0.429959,0.000000,0.000000,
310842056,0.414842,16.737320,5,-0.140320,-0.470703,0.175842,-0.853149,7.910000,-2.180000,4.880000,0.469027,0.439904,-0.269564,0.179908,0.343277,-0.312542,0.000000,0.000000,
310852743,0.228838,16.737320,5,-0.139465,-0.470825,0.177490,-0.852844,8.080000,-1.850000,5.000000,0.334379,0.063405,-0.130602,0.186689,0.345327,-0.179352,0.000000,0.000000,
310862714,0.043352,16.737320,5,-0.138550,-0.470947,0.179321,-0.852539,8.290000,-1.780000,5.010000,0.207746,-0.024796,0.046080,0.181007,0.335441,-0.014325,0.000000,0.000000,
310872384,0.136339,16.741963,5,-0.137573,-0.471069,0.181274,-0.852234,8.100000,-1.930000,4.840000,0.237836,0.127249,-0.169824,0.181390,0.330548,-0.128158,0.000000,0.000000,
310884302,0.043352,16.746606,5,-0.136536,-0.471191,0.183411,-0.851868,8.390000,-1.740000,5.010000,0.125707,-0.148984,0.122066,0.176527,0.321872,0.055019,0.000000,0.000000,
310893564,0.415361,16.728033,5,-0.135559,-0.471252,0.185547,-0.851562,8.250000,-2.370000,4.900000,0.369957,0.410222,0.069258,0.194797,0.340032,0.065443,0.000000,0.000000,
310903148,0.321825,16.741963,5,-0.134644,-0.471313,0.187500,-0.851196,8.350000,-1.990000,4.900000,0.155111,0.035287,0.080580,0.206181,0.350078,0.076524,0.000000,0.000000,
310913536,-0.049666,16.741963,5,-0.133911,-0.471436,0.189148,-0.850891,8.370000,-2.200000,5.090000,0.375679,0.102478,0.234642,0.193475,0.333847,0.192274,0.000000,0.000000,
310923256,0.414842,16.737320,5,-0.133240,-0.471558,0.190735,-0.850586,8.310000,-2.200000,5.070000,0.387157,0.076465,0.173092,0.210889,0.351702,0.178232,0.000000,0.000000,
310932617,0.880388,16.732676,5,-0.132751,-0.471619,0.192139,-0.850342,8.270000,-2.290000,5.170000,0.522528,0.073203,0.209124,0.256987,0.402518,0.200847,0.000000,0.000000,
310942646,-0.049666,16.732676,5,-0.132263,-0.471619,0.193420,-0.850098,8.580000,-2.280000,5.110000,0.299886,0.077142,0.436941,0.241459,0.384567,0.373679,0.000000,0.000000,
310952092,0.228838,16.737320,5,-0.131958,-0.471558,0.194519,-0.849915,8.500000,-2.330000,5.150000,0.391156,0.076651,0.399144,0.244304,0.387421,0.392321,0.000000,0.000000,
310960714,0.228838,16.737320,5,-0.131592,-0.471436,0.195557,-0.849792,8.540000,-2.310000,5.170000,0.376323,0.027953,0.439653,0.246676,0.390101,0.426970,0.000000,0.000000,
310970078,0.228838,16.737320,5,-0.131165,-0.471130,0.196533,-0.849854,8.790000,-2.370000,5.240000,0.309023,0.040324,0.703623,0.249232,0.395368,0.629494,0.000000,0.000000,
310978635,-0.142653,16.746606,5,-0.131165,-0.471130,0.196533,-0.849854,8.640000,-2.470000,5.090000,0.307552,0.174381,0.520786,0.227735,0.371649,0.549914,0.000000,0.000000,
310986576,0.321825,16.751250,5,-0.130676,-0.470642,0.197388,-0.849976,8.690000,-2.370000,5.070000,0.204088,0.082796,0.532722,0.236661,0.382587,0.537329,0.000000,0.000000,
310996273,0.693864,16.741963,5,-0.130066,-0.470154,0.198059,-0.850159,8.560000,-2.330000,5.130000,0.286626,-0.002965,0.446917,0.269290,0.419216,0.471143,0.000000,0.000000,
311005148,0.228838,16.746606,5,-0.129456,-0.469543,0.198608,-0.850464,8.520000,-2.290000,5.150000,0.288764,-0.053391,0.415890,0.270470,0.420043,0.430695,0.000000,0.000000,
311014287,0.414842,16.746606,5,-0.128845,-0.468933,0.198914,-0.850830,8.480000,-2.330000,5.210000,0.370201,-0.046906,0.419940,0.283436,0.434042,0.422821,0.000000,0.000000,
311024977,0.043352,16.746606,5,-0.128296,-0.468323,0.198975,-0.851257,8.620000,-2.260000,5.260000,0.287739,-0.131330,0.549599,0.272947,0.422998,0.515629,0.000000,0.000000,
311034266,0.228838,16.746606,5,-0.127625,-0.467712,0.198792,-0.851746,8.580000,-2.260000,5.210000,0.255931,-0.100164,0.482355,0.274107,0.424345,0.491271,0.000000,0.000000,
311043548,0.136339,16.751250,5,-0.126892,-0.467041,0.198486,-0.852295,8.560000,-2.220000,5.190000,0.218027,-0.130753,0.448852,0.269358,0.418762,0.460218,0.000000,0.000000,
311053465,0.043352,16.737320,5,-0.126038,-0.466309,0.198059,-0.852905,8.600000,-2.330000,5.360000,0.341126,-0.098832,0.597298,0.259260,0.408696,0.560568,0.000000,0.000000,
311062239,0.321825,16.741963,5,-0.125061,-0.465515,0.197510,-0.853577,8.390000,-2.500000,5.210000,0.383914,0.115837,0.381546,0.266808,0.416430,0.429514,0.000000,0.000000,
311070862,0.321825,16.741963,5,-0.123901,-0.464783,0.196960,-0.854309,8.500000,-2.330000,5.320000,0.321791,-0.085342,0.492714,0.273888,0.424566,0.475780,0.000000,0.000000,
311079656,0.321825,16.751250,5,-0.123901,-0.464783,0.196960,-0.854309,8.230000,-2.280000,5.190000,0.329944,-0.069612,0.188926,0.280639,0.429597,0.265788,0.000000,0.000000,
311087339,0.507829,16.741963,5,-0.122620,-0.463928,0.196350,-0.855103,8.120000,-2.290000,5.050000,0.258958,0.000777,0.035262,0.298202,0.445686,0.097031,0.000000,0.000000,
311095956,0.414842,16.746606,5,-0.121155,-0.463013,0.195984,-0.855896,8.310000,-2.060000,5.360000,0.269329,-0.346649,0.291555,0.309363,0.456234,0.239433,0.000000,0.000000,
311105968,-0.142653,16.746606,5,-0.119446,-0.462097,0.195740,-0.856689,8.100000,-2.560000,4.960000,0.245135,0.266230,0.032349,0.285612,0.425485,0.087836,0.000000,0.000000,
311115023,0.043352,16.746606,5,-0.117737,-0.461182,0.195618,-0.857422,7.930000,-2.430000,5.070000,0.369457,0.097935,-0.083690,0.274270,0.407901,-0.037730,0.000000,0.000000,
311124605,0.507829,16.751250,5,-0.116028,-0.460388,0.195557,-0.858093,8.350000,-2.330000,5.090000,0.095212,-0.004749,0.254189,0.292841,0.426493,0.175969,0.000000,0.000000,
311135544,0.136339,16.751250,5,-0.114380,-0.459534,0.195618,-0.858765,8.160000,-2.310000,4.900000,0.016882,0.049109,-0.001809,0.287668,0.415665,0.045827,0.000000,0.000000,
311144780,0.043352,16.755893,5,-0.112793,-0.458801,0.195740,-0.859375,8.440000,-2.060000,5.010000,-0.170198,-0.233174,0.227131,0.276145,0.400646,0.178551,0.000000,0.000000,
311154547,0.693864,16.741963,5,-0.111267,-0.458069,0.195923,-0.859863,8.200000,-2.260000,4.940000,-0.035167,-0.039731,0.037203,0.306356,0.430377,0.075077,0.000000,0.000000,
311165135,0.043352,16.746606,5,-0.110107,-0.457703,0.195740,-0.860229,8.200000,-2.490000,4.940000,0.032954,0.162430,0.092308,0.294329,0.412807,0.087691,0.000000,0.000000,
311174850,0.136339,16.741963,5,-0.109131,-0.457397,0.195496,-0.860596,8.410000,-2.490000,4.860000,-0.160832,0.194732,0.227151,0.288373,0.403807,0.189783,0.000000,0.000000,
311184198,0.043352,16.746606,5,-0.108154,-0.457275,0.195190,-0.860901,8.180000,-2.580000,4.940000,0.059454,0.238866,0.098085,0.276665,0.387261,0.122656,0.000000,0.000000,
311193629,-0.142653,16.746606,5,-0.107422,-0.457153,0.194885,-0.861084,8.250000,-2.770000,5.000000,0.126183,0.388873,0.226576,0.253836,0.359556,0.198731,0.000000,0.000000,
311202660,0.228838,16.737320,5,-0.106873,-0.457092,0.194580,-0.861267,8.410000,-2.750000,5.010000,0.030744,0.367772,0.367827,0.255525,0.361118,0.322518,0.000000,0.000000,
311211295,0.507829,16.732676,5,-0.106445,-0.457092,0.194397,-0.861389,8.520000,-2.770000,5.110000,0.046970,0.334248,0.512065,0.274580,0.383473,0.461276,0.000000,0.000000,
311220844,0.321825,16.732676,5,-0.106018,-0.457031,0.194397,-0.861450,8.540000,-2.810000,5.070000,0.019945,0.387520,0.518011,0.281244,0.391745,0.502809,0.000000,0.000000,
311228307,0.136339,16.741963,5,-0.106018,-0.457031,0.194397,-0.861450,8.540000,-2.950000,5.190000,0.156334,0.452953,0.609753,0.275073,0.386100,0.581097,0.000000,0.000000,
311237226,0.507829,16.741963,5,-0.105591,-0.456970,0.194519,-0.861511,8.580000,-2.870000,5.190000,0.104659,0.380714,0.624111,0.293147,0.407916,0.612586,0.000000,0.000000,
311247176,0.600847,16.737320,5,-0.105286,-0.457031,0.194641,-0.861450,8.560000,-2.810000,5.210000,0.105508,0.308532,0.601107,0.316549,0.435360,0.604183,0.000000,0.000000,
311255833,-0.142653,16.746606,5,-0.105042,-0.457092,0.194885,-0.861389,8.580000,-2.890000,5.260000,0.160311,0.358756,0.662368,0.291517,0.408914,0.646777,0.000000,0.000000,
311265301,0.228838,16.746606,5,-0.104858,-0.457214,0.195190,-0.861328,8.660000,-2.950000,5.260000,0.144563,0.408316,0.748408,0.291492,0.411606,0.721176,0.000000,0.000000,
311276251,0.414842,16.737320,5,-0.104736,-0.457336,0.195496,-0.861206,8.460000,-3.000000,5.260000,0.271067,0.443522,0.592568,0.303788,0.426785,0.627028,0.000000,0.000000,
311285552,0.787370,16.737320,5,-0.104675,-0.457581,0.195923,-0.860962,8.460000,-2.960000,5.260000,0.264579,0.402472,0.588210,0.338250,0.466493,0.598611,0.000000,0.000000,
311295372,-0.235640,16.751250,5,-0.104553,-0.457764,0.196411,-0.860779,8.330000,-2.950000,5.280000,0.358334,0.370752,0.482739,0.306674,0.430598,0.513787,0.000000,0.000000,
311305559,-0.049666,16.741963,5,-0.104431,-0.458008,0.197021,-0.860535,8.440000,-2.980000,5.360000,0.364194,0.353178,0.619388,0.288602,0.411577,0.591092,0.000000,0.000000,
311315218,0.136339,16.741963,5,-0.104248,-0.458130,0.197571,-0.860352,8.410000,-2.960000,5.400000,0.407672,0.303609,0.612631,0.282983,0.406618,0.606860,0.000000,0.000000,
311324134,0.136339,16.741963,5,-0.103943,-0.458252,0.198181,-0.860168,8.330000,-2.950000,5.420000,0.467627,0.271846,0.556774,0.277363,0.401078,0.570195,0.000000,0.000000,
311333627,0.507829,16.732676,5,-0.103516,-0.458374,0.198853,-0.859985,8.270000,-2.890000,5.280000,0.367680,0.260445,0.417546,0.295740,0.421492,0.458448,0.000000,0.000000,
311341347,0.321825,16.741963,5,-0.103088,-0.458496,0.199524,-0.859863,8.310000,-2.850000,5.300000,0.349741,0.201565,0.453720,0.300651,0.426854,0.454987,0.000000,0.000000,
311348890,0.507829,16.741963,5,-0.103088,-0.458496,0.199524,-0.859863,8.200000,-2.810000,5.320000,0.411965,0.135110,0.362544,0.316889,0.444198,0.387314,0.000000,0.000000,
311358841,0.507829,16.751250,5,-0.102600,-0.458618,0.200134,-0.859680,8.160000,-2.810000,5.260000,0.393281,0.147831,0.302094,0.333300,0.460582,0.324928,0.000000,0.000000,
311367536,-0.142653,16.746606,5,-0.102112,-0.458740,0.200623,-0.859558,8.200000,-2.770000,5.260000,0.352920,0.102313,0.322908,0.307454,0.429983,0.323450,0.000000,0.000000,
311376398,0.321825,16.751250,5,-0.101624,-0.458862,0.201050,-0.859497,8.180000,-2.750000,5.400000,0.461578,0.022901,0.371123,0.312181,0.434277,0.358349,0.000000,0.000000,
311387059,-0.235640,16.751250,5,-0.101135,-0.458862,0.201416,-0.859436,8.310000,-2.790000,5.400000,0.399632,0.048222,0.486688,0.282458,0.401139,0.452300,0.000000,0.000000,
311396251,0.043352,16.746606,5,-0.100647,-0.458862,0.201721,-0.859436,8.270000,-2.790000,5.260000,0.320994,0.096565,0.386444,0.271127,0.387797,0.404090,0.000000,0.000000,
311405938,-0.328139,16.737320,5,-0.099854,-0.458618,0.202026,-0.859558,8.330000,-2.730000,5.230000,0.226472,0.050139,0.407054,0.237213,0.349449,0.406260,0.000000,0.000000,
311416433,-0.142653,16.746606,5,-0.099243,-0.458496,0.202209,-0.859680,8.060000,-2.720000,5.150000,0.310375,0.071138,0.138594,0.216945,0.324074,0.210315,0.000000,0.000000,
311426062,0.136339,16.741963,5,-0.098572,-0.458435,0.202393,-0.859741,8.120000,-2.680000,5.150000,0.258870,0.025417,0.175614,0.214984,0.320005,0.184912,0.000000,0.000000,
311435410,0.043352,16.746606,5,-0.097961,-0.458496,0.202454,-0.859802,8.140000,-2.700000,5.130000,0.236179,0.042986,0.184872,0.207148,0.309459,0.184882,0.000000,0.000000,
311445177,0.043352,16.746606,5,-0.097412,-0.458496,0.202454,-0.859802,8.120000,-2.720000,5.090000,0.226273,0.074378,0.166923,0.199832,0.299378,0.171735,0.000000,0.000000,
311453751,-0.235640,16.732676,5,-0.096863,-0.458496,0.202332,-0.859924,8.140000,-2.700000,5.110000,0.211865,0.042867,0.180765,0.174913,0.269708,0.178346,0.000000,0.000000,
311461624,0.228838,16.746606,5,-0.096863,-0.458496,0.202332,-0.859924,8.160000,-2.750000,5.110000,0.218255,0.087457,0.210278,0.180439,0.275218,0.201722,0.000000,0.000000,
311470912,-0.421126,16.751250,5,-0.096313,-0.458557,0.202209,-0.859985,8.310000,-2.750000,5.130000,0.148985,0.075947,0.344437,0.145193,0.235879,0.306196,0.000000,0.000000,
311479431,-0.142653,16.746606,5,-0.095764,-0.458496,0.201965,-0.860107,8.250000,-2.770000,5.190000,0.234433,0.069212,0.329920,0.129132,0.218348,0.323563,0.000000,0.000000,
311488042,0.136339,16.741963,5,-0.095276,-0.458496,0.201660,-0.860229,8.290000,-2.750000,5.150000,0.174825,0.068044,0.337939,0.131477,0.221765,0.334087,0.000000,0.000000,
311498233,-0.049666,16.741963,5,-0.094727,-0.458496,0.201294,-0.860413,8.270000,-3.000000,5.170000,0.280267,0.289722,0.391310,0.122390,0.213028,0.375977,0.000000,0.000000,
311507295,0.136339,16.741963,5,-0.094177,-0.458557,0.200928,-0.860535,8.310000,-2.730000,5.050000,0.073670,0.097715,0.294497,0.125206,0.216667,0.316330,0.000000,0.000000,
311516759,0.136339,16.741963,5,-0.093506,-0.458557,0.200623,-0.860657,8.270000,-2.750000,5.030000,0.082158,0.125152,0.264927,0.127967,0.219963,0.278701,0.000000,0.000000,
311528221,0.321825,16.751250,5,-0.092590,-0.458496,0.200256,-0.860840,8.270000,-2.730000,5.070000,0.105002,0.090020,0.279760,0.142721,0.236879,0.279476,0.000000,0.000000,
311537214,-0.049666,16.741963,5,-0.091919,-0.458496,0.199890,-0.861023,8.310000,-2.810000,5.090000,0.117108,0.157184,0.338638,0.132719,0.226142,0.322785,0.000000,0.000000,
311546048,0.601366,16.728033,5,-0.091125,-0.458557,0.199463,-0.861206,8.410000,-2.830000,5.110000,0.078891,0.155343,0.433885,0.164300,0.263559,0.404116,0.000000,0.000000,
311556358,-0.235640,16.741963,5,-0.090271,-0.458557,0.199097,-0.861328,8.480000,-2.770000,5.050000,-0.032109,0.124522,0.454361,0.141800,0.239676,0.440898,0.000000,0.000000,
311564948,-0.328139,16.737320,5,-0.089417,-0.458618,0.198730,-0.861511,8.430000,-2.910000,5.000000,0.005000,0.273786,0.424534,0.114205,0.209546,0.428919,0.000000,0.000000,
311573303,0.414842,16.737320,5,-0.088562,-0.458740,0.198364,-0.861633,8.350000,-2.890000,4.940000,-0.002532,0.283379,0.323287,0.134907,0.233725,0.351591,0.000000,0.000000,
311581703,0.136339,16.751250,5,-0.088562,-0.458740,0.198364,-0.861633,8.410000,-3.020000,5.030000,0.075142,0.361280,0.451741,0.136979,0.237624,0.424906,0.000000,0.000000,
311590161,0.228838,16.728033,5,-0.087708,-0.458862,0.197998,-0.861694,8.390000,-3.100000,5.050000,0.127452,0.425955,0.466137,0.144772,0.248057,0.455089,0.000000,0.000000,
311599019,0.600847,16.737320,5,-0.086975,-0.459045,0.197571,-0.861816,8.500000,-3.080000,5.320000,0.262425,0.291189,0.686862,0.175595,0.286193,0.624759,0.000000,0.000000,
311608976,0.228838,16.746606,5,-0.086121,-0.459167,0.197205,-0.861877,8.560000,-3.020000,5.130000,0.064301,0.314728,0.625690,0.181816,0.296162,0.625440,0.000000,0.000000,
311617818,0.693864,16.741963,5,-0.085205,-0.459351,0.196777,-0.862000,8.500000,-3.020000,5.230000,0.173227,0.275128,0.626272,0.216599,0.337874,0.626049,0.000000,0.000000,
311627414,0.136339,16.741963,5,-0.084412,-0.459595,0.196350,-0.862061,8.350000,-3.160000,5.230000,0.302939,0.407932,0.538961,0.214825,0.337400,0.562296,0.000000,0.000000,
311638113,-0.421126,16.741963,5,-0.083557,-0.459778,0.195984,-0.862122,8.290000,-3.160000,5.230000,0.332715,0.401480,0.486886,0.178451,0.297645,0.507092,0.000000,0.000000,
311647486,0.507829,16.732676,5,-0.082581,-0.459900,0.195557,-0.862244,8.560000,-3.140000,5.280000,0.211221,0.353146,0.729664,0.202041,0.328086,0.670026,0.000000,0.000000,
311656858,0.136339,16.741963,5,-0.081543,-0.459961,0.195251,-0.862366,8.580000,-3.080000,5.340000,0.225416,0.273171,0.760706,0.201010,0.330522,0.736408,0.000000,0.000000,
311666431,-0.421126,16.741963,5,-0.080383,-0.459839,0.194946,-0.862610,8.520000,-3.100000,5.460000,0.339365,0.239374,0.777522,0.164972,0.293433,0.766505,0.000000,0.000000,
311674777,0.136339,16.741963,5,-0.079224,-0.459778,0.194763,-0.862793,8.290000,-3.100000,5.380000,0.404020,0.272940,0.545603,0.165629,0.295863,0.604793,0.000000,0.000000,
311683128,-0.235640,16.741963,5,-0.079224,-0.459778,0.194763,-0.862793,8.330000,-2.910000,5.510000,0.411754,0.035337,0.599344,0.142884,0.272270,0.600804,0.000000,0.000000,
311692195,0.880388,16.723389,5,-0.078003,-0.459656,0.194580,-0.862976,8.140000,-3.060000,5.460000,0.516665,0.196358,0.450081,0.191698,0.328635,0.490467,0.000000,0.000000,
311700474,0.321825,16.732676,5,-0.076721,-0.459595,0.194519,-0.863159,8.140000,-3.000000,5.420000,0.457904,0.149022,0.420255,0.202596,0.341319,0.439068,0.000000,0.000000,
311709261,0.321825,16.741963,5,-0.075562,-0.459534,0.194519,-0.863281,8.250000,-2.980000,5.490000,0.442333,0.097557,0.541033,0.213090,0.354459,0.513712,0.000000,0.000000,
311719403,0.136339,16.741963,5,-0.074463,-0.459534,0.194519,-0.863403,8.100000,-2.930000,5.460000,0.482404,0.053634,0.384208,0.211888,0.353011,0.418909,0.000000,0.000000,
311728477,-0.049666,16.741963,5,-0.073486,-0.459473,0.194519,-0.863525,8.200000,-2.770000,5.630000,0.506520,-0.165822,0.509162,0.198694,0.339125,0.484979,0.000000,0.000000,
311738068,0.414842,16.737320,5,-0.072266,-0.459412,0.194763,-0.863586,8.290000,-3.020000,5.650000,0.537943,0.040170,0.666260,0.215559,0.360802,0.617686,0.000000,0.000000,
311747504,0.414842,16.746606,5,-0.070679,-0.459412,0.195251,-0.863586,8.060000,-3.040000,5.510000,0.565398,0.096184,0.409940,0.231502,0.378821,0.465606,0.000000,0.000000,
311756291,-0.235640,16.741963,5,-0.069702,-0.459229,0.195557,-0.863708,8.100000,-3.000000,5.510000,0.513847,0.051775,0.432868,0.205487,0.349374,0.441640,0.000000,0.000000,
311764885,0.507829,16.732676,5,-0.068787,-0.459106,0.195923,-0.863770,7.970000,-2.980000,5.490000,0.563177,0.040337,0.308385,0.227478,0.373474,0.344091,0.000000,0.000000,
311773669,0.043352,16.737320,5,-0.068787,-0.459106,0.195923,-0.863770,8.180000,-3.080000,5.550000,0.507873,0.075905,0.540927,0.219237,0.365196,0.488185,0.000000,0.000000,
311781581,0.136339,16.741963,5,-0.067932,-0.458923,0.196350,-0.863831,8.250000,-3.100000,5.440000,0.377535,0.114765,0.551808,0.216955,0.363724,0.534760,0.000000,0.000000,
311790382,-0.142653,16.737320,5,-0.066711,-0.458618,0.196960,-0.863953,8.100000,-3.040000,5.240000,0.276697,0.121406,0.312405,0.197684,0.341321,0.371985,0.000000,0.000000,
