Code compiled on Feb 26 2026 at 14:18:31
﻿Simulation Mode (T/F),F
Airbrakes Enabled (T/F),T
Log File Name,RF
Sim File Name (if applicable),Sim
Burnout Mass (kg),0.6
Air Density (kg/m^3),1.2
Rocket CD,0.5
Airbrake CD,0.75
Rocket Area (m^2),0.00243
Kalman Model Y STD,0.1
Kalman Model V STD,0.2
Kalman Model A STD,0.5
Kalman Measurement Y STD,6
Kalman Measurement A STD,0.5
Target Apogee (m),228.6
Launch Acceleration Threshold (m/s^2),40
Coast Lockout (s),1.5
KP (1/s),0.24
Altimeter Lockout (s),60
Control Max Velocity (dep/s),2

Calibration point: 285.926588
Time (us),Altitude AGL (m),Temperature (deg C),Mode,IMU Quat W,IMU Quat X,IMU Quat Y,IMU Quat Z,IMU Raw Local Acceleration X,IMU Raw Local Acceleration Y,IMU Raw Local Acceleration Z,IMU Global Acceleration x,IMU Global Acceleration y,IMU Global Acceleration z,State Estimation y,State Estimation v,State Estimation a,Commanded servo deployment,Real servo deployment,
209912362,-0.334029,21.383718,1,0.997009,0.000000,-0.000793,0.077271,0.650000,-0.740000,22.010000,0.727057,-0.634050,12.211088,-0.284652,0.573616,9.139227,0.000000,0.000000,
209922013,-1.366133,21.388358,2,0.997009,0.000000,-0.000793,0.077271,-1.110000,0.490000,86.080000,-1.302811,0.302227,76.278072,-0.341492,1.235211,58.288273,0.000000,0.000000,
209934313,-1.085493,21.383718,2,0.997009,0.000000,-0.000793,0.077087,5.030000,-0.820000,83.090000,4.960538,-0.049114,73.297935,-0.367373,2.072335,69.276108,0.000000,0.000000,
209943465,-1.177992,21.388358,2,0.997070,0.000610,-0.001160,0.076233,6.430000,-0.970000,88.360000,6.308577,-0.093799,78.574141,-0.396191,2.737508,76.082740,0.000000,0.000000,
209955100,-1.273604,21.383718,2,0.997314,0.001526,-0.000854,0.073303,-10.530000,3.020000,90.760000,-10.969496,1.132034,80.947840,-0.414556,3.612104,79.644240,0.000000,0.000000,
209963801,-0.710280,21.383718,2,0.997620,0.003174,0.000366,0.068542,-4.290000,4.360000,95.570000,-4.737754,3.133969,85.796963,-0.398484,4.340472,84.148346,0.000000,0.000000,
209973176,-0.522169,21.383718,2,0.998108,0.004028,0.001282,0.061096,-10.840000,4.340000,96.270000,-10.994891,2.226530,86.524191,-0.361794,5.142404,85.887586,0.000000,0.000000,
209985027,-0.621901,21.369798,2,0.998474,0.003967,0.001953,0.054993,0.630000,3.330000,95.050000,0.657807,2.654494,85.270942,-0.311495,6.134007,85.436171,0.000000,0.000000,
209993930,-0.621901,21.369798,2,0.998840,0.003906,0.001587,0.047546,0.050000,-2.310000,93.170000,0.590975,-3.000509,83.347909,-0.273532,6.851343,83.907457,0.000000,0.000000,
210003447,-0.522169,21.383718,2,0.999268,0.003784,0.001160,0.037720,-3.690000,0.510000,96.810000,-3.476187,-0.489139,87.018118,-0.220184,7.660815,86.184619,0.000000,0.000000,
210014220,-1.177992,21.388358,2,0.999573,0.003845,0.001038,0.028625,2.370000,0.470000,95.930000,2.550828,-0.121427,86.125953,-0.193976,8.516830,86.141673,0.000000,0.000000,
210023610,-0.338179,21.374438,2,0.999817,0.003479,0.000916,0.018860,-7.330000,3.270000,94.440000,-7.269759,2.345639,84.672691,-0.119566,9.300609,85.066304,0.000000,0.000000,
210033351,-1.181105,21.379078,2,1.000000,0.003357,0.000793,0.005981,10.800000,-4.230000,95.970000,11.000716,-4.737936,86.122386,-0.092861,10.059550,85.839409,0.000000,0.000000,
210044368,-0.338179,21.374438,2,0.999939,0.003479,0.000671,-0.007385,9.020000,6.570000,90.550000,9.229460,5.813179,80.780613,0.006959,10.932804,82.136114,0.000000,0.000000,
210053692,-0.058546,21.369798,2,0.999756,0.002991,0.000488,-0.020569,-3.540000,0.720000,83.840000,-3.436276,0.370346,74.046514,0.107596,11.615346,76.214116,0.000000,0.000000,
210063513,0.600450,21.374438,2,0.999451,0.002136,0.000000,-0.033569,0.590000,2.960000,90.490000,0.773035,2.529247,80.701648,0.257360,12.445005,79.499217,0.000000,0.000000,
210075191,0.600450,21.374438,2,0.999084,0.001892,0.000610,-0.043091,0.680000,-6.840000,90.810000,0.182345,-7.204422,80.982831,0.430346,13.415898,80.585298,0.000000,0.000000,
210084243,0.221574,21.365157,2,0.998962,0.001221,0.000916,-0.045471,-3.330000,4.610000,90.390000,-2.750798,4.669355,80.606878,0.541635,14.129607,80.601096,0.000000,0.000000,
210093780,0.788622,21.374438,2,0.999023,0.001343,0.001709,-0.044617,2.520000,-4.230000,89.910000,2.424889,-4.687521,80.089476,0.695910,14.912171,80.226564,0.000000,0.000000,
210105581,1.252794,21.360517,2,0.999146,0.001831,0.001953,-0.041321,4.270000,-0.380000,91.410000,4.557594,-1.075404,81.589963,0.913523,15.916378,81.224641,0.000000,0.000000,
210114480,1.723741,21.365157,2,0.999268,0.002014,0.001587,-0.038696,-6.470000,11.820000,93.400000,-5.256709,11.905809,83.666340,1.110877,16.724505,83.012089,0.000000,0.000000,
210125196,1.352556,21.374438,2,0.999390,0.002930,0.003601,-0.034790,-17.470000,13.640000,95.720000,-15.781978,14.229737,86.120982,1.310738,17.664748,85.287956,0.000000,0.000000,
210134467,1.444566,21.369798,2,0.999512,0.003540,0.005432,-0.031494,1.130000,-0.800000,93.920000,2.068009,-1.559731,84.093505,1.486715,18.454241,84.413557,0.000000,0.000000,
210144086,1.356187,21.383718,2,0.999695,0.003784,0.005188,-0.024841,3.540000,1.530000,91.730000,4.542324,0.636506,81.895472,1.659520,19.232116,82.570191,0.000000,0.000000,
210154873,2.103685,21.374438,2,0.999878,0.003601,0.006226,-0.012756,-6.030000,2.950000,92.350000,-4.813632,2.431905,82.635933,1.900436,20.157137,82.618318,0.000000,0.000000,
210164341,1.916032,21.374438,2,0.999939,0.003540,0.006653,-0.005188,7.120000,1.160000,95.370000,8.395786,0.413321,85.471266,2.096227,20.968325,84.706821,0.000000,0.000000,
210174145,2.383379,21.369798,2,1.000000,0.003784,0.006409,-0.000122,-2.450000,0.720000,94.740000,-1.240988,0.007448,84.965375,2.324407,21.823088,84.896096,0.000000,0.000000,
210186060,2.575700,21.379078,2,1.000000,0.003784,0.005798,-0.001404,-4.630000,2.200000,94.090000,-3.557043,1.493169,84.350626,2.606636,22.847456,84.496784,0.000000,0.000000,
210194937,2.855394,21.374438,2,0.999939,0.004150,0.004944,-0.006775,3.180000,1.340000,95.390000,4.128086,0.499516,85.560727,2.828957,23.626720,85.275644,0.000000,0.000000,
210204418,3.322771,21.369798,2,0.999878,0.005371,0.003784,-0.012207,-3.830000,1.760000,94.300000,-3.089814,0.835632,84.539328,3.088607,24.465713,84.736623,0.000000,0.000000,
210216112,4.078691,21.379078,2,0.999817,0.007446,0.002075,-0.017456,0.780000,2.080000,93.710000,1.171581,0.595957,83.924389,3.444407,25.522456,84.142027,0.000000,0.000000,
210224942,3.038927,21.365157,2,0.999695,0.010315,0.000122,-0.022827,-1.870000,0.470000,92.960000,-1.874593,-1.360517,83.149205,3.646754,26.225104,83.415231,0.000000,0.000000,
210234375,4.357896,21.374438,2,0.999512,0.013977,-0.002258,-0.028137,-3.180000,0.860000,93.090000,-3.613252,-1.546985,83.261201,3.943715,27.064331,83.302473,0.000000,0.000000,
210245425,3.890489,21.379078,2,0.999268,0.018311,-0.004944,-0.033569,-0.220000,1.220000,92.160000,-1.156882,-2.109263,82.339901,4.244337,27.970595,82.597822,0.000000,0.000000,
210254839,4.917924,21.365157,2,0.998901,0.023376,-0.007935,-0.039124,-1.550000,-0.010000,92.190000,-3.168109,-4.133164,82.253769,4.554783,28.795881,82.345958,0.000000,0.000000,
210264581,5.857042,21.365157,2,0.998474,0.029114,-0.011230,-0.044983,-0.740000,0.630000,91.620000,-2.970408,-4.531579,81.665747,4.923169,29.689718,81.848009,0.000000,0.000000,
210275562,6.329729,21.369798,2,0.997925,0.035461,-0.014771,-0.051086,0.340000,0.340000,91.580000,-2.654987,-6.033181,81.544854,5.344899,30.691123,81.626084,0.000000,0.000000,
210284920,6.517442,21.369798,2,0.997253,0.042419,-0.018494,-0.057556,-2.700000,-1.030000,91.270000,-6.605434,-8.233220,80.901516,5.711334,31.536670,81.095663,0.000000,0.000000,
210294622,7.081194,21.369798,2,0.996399,0.049927,-0.022400,-0.064514,-1.470000,-0.910000,90.340000,-6.181205,-9.430165,79.851461,6.109362,32.414505,80.184845,0.000000,0.000000,
210306625,7.273088,21.379078,2,0.995361,0.057922,-0.026367,-0.072083,-0.490000,-1.340000,90.320000,-6.239887,-11.481637,79.604915,6.579340,33.457723,79.760307,0.000000,0.000000,
210315501,7.741197,21.374438,2,0.994080,0.066345,-0.030457,-0.080444,-2.470000,-2.560000,90.030000,-9.235973,-13.533748,78.793116,6.954502,34.244677,79.052274,0.000000,0.000000,
210325070,8.212419,21.379078,2,0.992554,0.075195,-0.034485,-0.089661,-0.780000,-2.370000,89.720000,-8.517333,-14.997617,78.277617,7.366916,35.088429,78.485186,0.000000,0.000000,
210336702,9.056627,21.374438,2,0.990662,0.084290,-0.038513,-0.100037,-1.280000,-3.440000,88.860000,-10.255987,-17.398028,76.863159,7.889378,36.110144,77.297780,0.000000,0.000000,
210345625,10.088731,21.369798,2,0.988403,0.093628,-0.042419,-0.111694,-1.260000,-4.460000,88.550000,-11.443042,-19.528088,75.936380,8.356698,36.953418,76.301167,0.000000,0.000000,
210355203,11.028825,21.369798,2,0.985718,0.103149,-0.046143,-0.124878,-1.830000,-5.170000,88.800000,-13.344184,-21.461884,75.503565,8.886419,37.877201,75.717282,0.000000,0.000000,
210366139,11.501237,21.374438,2,0.982544,0.112732,-0.049622,-0.139526,-1.050000,-5.920000,87.610000,-13.851448,-23.430723,73.693606,9.473703,38.879436,74.235849,0.000000,0.000000,
210375626,12.065263,21.374438,2,0.978760,0.122253,-0.052856,-0.155762,-1.430000,-6.550000,86.730000,-15.539599,-24.904083,72.088005,10.012975,39.757501,72.663519,0.000000,0.000000,
210385214,12.160997,21.379078,2,0.974365,0.131714,-0.055725,-0.173767,-0.900000,-7.080000,86.730000,-16.514920,-26.667621,71.372072,10.535857,40.602482,71.718115,0.000000,0.000000,
210395973,13.665361,21.379078,2,0.969177,0.140991,-0.058289,-0.193359,-0.170000,-8.000000,86.100000,-17.442019,-28.607116,69.909290,11.178443,41.588524,70.393964,0.000000,0.000000,
210405419,14.789537,21.369798,2,0.963196,0.149902,-0.060486,-0.214661,0.280000,-8.790000,85.810000,-18.740966,-30.253012,68.773236,11.807108,42.508021,69.207510,0.000000,0.000000,
210417196,16.579027,21.374438,2,0.956421,0.158386,-0.062500,-0.237122,0.170000,-9.520000,85.430000,-20.605937,-31.596380,67.517150,12.620373,43.659677,67.970081,0.000000,0.000000,
210426047,17.703539,21.365157,2,0.948792,0.166382,-0.064209,-0.260864,1.930000,-9.770000,84.820000,-20.669026,-32.833002,66.277888,13.337581,44.627809,66.731310,0.000000,0.000000,
210435541,18.363664,21.369798,2,0.940125,0.173706,-0.065796,-0.285828,0.440000,-10.170000,84.890000,-23.793976,-32.680822,65.542131,14.088027,45.625056,65.860772,0.000000,0.000000,
210447280,18.744249,21.379078,2,0.930298,0.180359,-0.067200,-0.312195,1.450000,-10.710000,83.990000,-24.741910,-33.631822,63.942409,14.928334,46.722781,64.456433,0.000000,0.000000,
210456165,19.869493,21.369798,2,0.919250,0.186096,-0.068481,-0.340088,2.430000,-10.380000,83.970000,-25.586495,-33.655186,63.528953,15.664822,47.657435,63.777471,0.000000,0.000000,
210465594,21.466661,21.365157,2,0.906799,0.190979,-0.069885,-0.369202,1.800000,-10.990000,83.130000,-28.039619,-32.941533,62.054377,16.490467,48.674188,62.516079,0.000000,0.000000,
210476290,20.814622,21.379078,2,0.892761,0.194885,-0.071350,-0.399902,2.410000,-10.780000,82.540000,-29.169090,-32.304884,61.191037,17.292964,49.649414,61.546082,0.000000,0.000000,
210485786,21.658830,21.374438,2,0.876892,0.197937,-0.072815,-0.431946,2.930000,-10.860000,81.710000,-30.518084,-31.482411,60.058858,18.048199,50.543930,60.457359,0.000000,0.000000,
210495561,22.315599,21.369798,2,0.859253,0.199951,-0.074524,-0.464966,1.700000,-10.650000,82.120000,-33.031219,-29.119424,60.346295,18.819630,51.449734,60.376055,0.000000,0.000000,
210506619,23.256792,21.369798,2,0.839966,0.200928,-0.076477,-0.498230,1.990000,-11.070000,80.660000,-34.457878,-27.483030,58.686583,19.677729,52.427079,59.139276,0.000000,0.000000,
210516091,23.260942,21.379078,2,0.818848,0.200806,-0.078796,-0.531982,1.570000,-10.570000,79.740000,-35.538617,-24.680013,58.024763,20.407636,53.242605,58.323397,0.000000,0.000000,
210525788,23.821458,21.369798,2,0.795654,0.199646,-0.081299,-0.566101,1.740000,-11.450000,79.530000,-37.604540,-22.759917,57.481268,21.146190,54.052570,57.706916,0.000000,0.000000,
210537581,24.013658,21.379078,2,0.770325,0.197510,-0.084106,-0.600403,1.780000,-10.920000,79.490000,-38.417917,-20.055673,57.744624,21.972377,54.945134,57.734521,0.000000,0.000000,
210546483,24.950883,21.369798,2,0.742554,0.194580,-0.087036,-0.634949,1.240000,-11.170000,78.020000,-39.292360,-16.445799,56.523656,22.655671,55.669637,56.848107,0.000000,0.000000,
210556096,25.043108,21.365157,2,0.711548,0.190918,-0.089783,-0.670227,1.550000,-11.640000,77.060000,-40.135316,-13.521906,55.637329,23.346929,56.381058,55.961756,0.000000,0.000000,
210567831,25.800615,21.374438,2,0.676575,0.186584,-0.092285,-0.706299,0.910000,-11.950000,76.620000,-40.672244,-9.556656,55.481120,24.170415,57.213264,55.609907,0.000000,0.000000,
210576757,26.645769,21.369798,2,0.637329,0.181580,-0.094543,-0.742859,1.300000,-12.160000,76.350000,-41.047501,-6.157967,55.434841,24.842822,57.892252,55.481750,0.000000,0.000000,
210587312,27.398729,21.369798,2,0.593933,0.176086,-0.096619,-0.779053,0.030000,-12.410000,75.280000,-40.357176,-1.016151,54.939208,25.621478,58.661028,55.084582,0.000000,0.000000,
210596575,27.683244,21.374438,2,0.545959,0.170105,-0.098450,-0.814453,0.400000,-12.740000,74.160000,-39.561418,2.649175,54.157043,26.299826,59.315067,54.405577,0.000000,0.000000,
210606131,27.683244,21.374438,2,0.492920,0.163574,-0.099915,-0.848694,-0.300000,-13.230000,73.230000,-38.039404,7.411586,53.727436,26.957957,59.930326,53.909143,0.000000,0.000000,
210617246,28.156389,21.379078,2,0.434509,0.156738,-0.100952,-0.881165,0.260000,-13.580000,73.130000,-36.730718,11.024759,53.931183,27.704462,60.617678,53.925278,0.000000,0.000000,
210626679,29.001726,21.374438,2,0.371033,0.149536,-0.101624,-0.910828,-0.090000,-14.460000,71.900000,-34.278742,15.573402,53.135696,28.362039,61.214418,53.347264,0.000000,0.000000,
210636406,30.039445,21.379078,2,0.302490,0.142151,-0.101929,-0.936951,0.380000,-14.960000,71.290000,-31.720207,19.170042,52.908693,29.067719,61.852342,53.026208,0.000000,0.000000,
210697494,30.973070,21.360517,2,-0.201904,0.095093,-0.093567,-0.970276,5.070000,-17.330000,66.420000,-7.207238,32.114470,50.650986,33.070907,65.118906,51.287425,0.000000,0.000000,
210706836,38.964861,21.328036,2,-0.294800,0.086182,-0.089905,-0.947388,5.420000,-16.860000,66.040000,-2.001888,31.202593,50.999944,34.108284,66.158500,51.076990,0.000000,0.000000,
210716710,38.495866,21.332676,2,-0.390442,0.077148,-0.085449,-0.913391,7.050000,-18.020000,65.370000,3.419793,31.329852,50.648156,35.078476,67.067686,50.763066,0.000000,0.000000,
210729374,39.815721,21.332676,2,-0.490479,0.068481,-0.079956,-0.865051,7.300000,-15.820000,63.860000,7.168162,26.996914,50.088862,36.269571,68.134948,50.269516,0.000000,0.000000,
210738171,40.192430,21.332676,2,-0.593872,0.060425,-0.073547,-0.798889,9.190000,-11.870000,62.730000,8.144940,23.876174,49.563438,37.148719,68.925846,49.752632,0.000000,0.000000,
210747287,41.139940,21.341957,2,-0.696655,0.052856,-0.066589,-0.712341,11.130000,-8.270000,61.290000,9.065477,21.458073,48.557457,38.058792,69.720631,48.877704,0.000000,0.000000,
210758080,41.893968,21.341957,2,-0.792725,0.045105,-0.059448,-0.605042,12.100000,-4.860000,60.100000,10.221502,18.874630,47.829824,39.080923,70.568087,48.110603,0.000000,0.000000,
210767317,41.893968,21.341957,2,-0.874329,0.036255,-0.052795,-0.481079,11.640000,-2.450000,58.950000,11.643072,15.162333,47.217110,39.929195,71.243393,47.456521,0.000000,0.000000,
210777036,41.236986,21.346597,2,-0.936523,0.025940,-0.047058,-0.346436,12.640000,-0.820000,58.280000,14.177425,12.275387,46.808808,40.713527,71.807426,46.982362,0.000000,0.000000,
210788713,42.087022,21.351237,2,-0.977417,0.014038,-0.042542,-0.206604,12.090000,1.320000,57.000000,14.890070,8.634606,45.883535,41.648969,72.456465,46.177965,0.000000,0.000000,
210797713,41.517198,21.341957,2,-0.997009,0.000366,-0.039551,-0.065979,12.140000,1.280000,56.020000,16.239307,3.202467,45.092088,42.293897,72.850923,45.383048,0.000000,0.000000,
210807183,41.995164,21.355877,2,-0.996582,-0.014771,-0.037964,0.072144,12.120000,2.100000,54.640000,16.279398,-1.554662,43.763837,42.965528,73.241410,44.197703,0.000000,0.000000,
210819077,41.617876,21.355877,2,-0.977600,-0.031067,-0.037781,0.204590,12.720000,2.470000,53.090000,15.942658,-7.085606,42.046218,43.748825,73.636640,42.622707,0.000000,0.000000,
210827975,42.280595,21.360517,2,-0.942078,-0.047852,-0.039001,0.329651,12.770000,2.700000,52.610000,13.842593,-11.871711,41.238171,44.307108,73.887082,41.609156,0.000000,0.000000,
210838650,42.846300,21.360517,2,-0.891663,-0.064697,-0.041382,0.446167,13.350000,3.390000,51.860000,11.539413,-16.423883,39.954603,45.000524,74.201047,40.397939,0.000000,0.000000,
210847872,44.069658,21.355877,2,-0.827515,-0.080933,-0.044800,0.553772,13.830000,3.460000,51.400000,7.696081,-20.711059,38.750618,45.624481,74.486318,39.192016,0.000000,0.000000,
210857528,44.074327,21.365157,2,-0.751343,-0.096130,-0.049133,0.651062,14.560000,5.440000,49.980000,4.962083,-23.795874,36.557469,46.242745,74.721853,37.263394,0.000000,0.000000,
210868475,45.674730,21.360517,2,-0.664795,-0.109924,-0.054077,0.736877,15.360000,5.610000,49.350000,-0.291843,-26.626862,34.845449,47.025239,75.061545,35.493335,0.000000,0.000000,
210877899,46.338243,21.365157,2,-0.569397,-0.121887,-0.059570,0.810791,14.880000,6.610000,48.600000,-4.894924,-27.239985,33.339453,47.688790,75.323642,33.916584,0.000000,0.000000,
210887532,46.903642,21.365157,2,-0.466187,-0.131653,-0.065002,0.872437,14.460000,6.870000,46.360000,-9.804412,-26.286098,30.426228,48.364193,75.558513,31.361466,0.000000,0.000000,
210898559,47.281114,21.365157,2,-0.356384,-0.138977,-0.070435,0.921265,12.890000,8.850000,45.310000,-12.459836,-25.091774,29.085367,49.128185,75.800589,29.695246,0.000000,0.000000,
210907957,47.842393,21.355877,2,-0.240601,-0.143494,-0.075806,0.956970,12.090000,9.730000,43.950000,-15.969667,-23.202353,27.327907,49.757691,75.962277,27.962233,0.000000,0.000000,
210917815,47.474779,21.374438,2,-0.119690,-0.145142,-0.081055,0.978821,10.630000,10.670000,42.150000,-18.282675,-20.612961,25.471677,50.359044,76.047548,26.139019,0.000000,0.000000,
210928827,47.847093,21.365157,2,0.003601,-0.144226,-0.085754,0.985840,8.870000,11.610000,40.080000,-19.718219,-17.885590,23.530798,51.034458,76.126055,24.229669,0.000000,0.000000,
210938173,47.373003,21.360517,2,0.125549,-0.141174,-0.089355,0.977905,6.800000,11.660000,37.800000,-20.163427,-14.532288,21.717894,51.509059,76.063360,22.390922,0.000000,0.000000,
210947811,46.530840,21.374438,2,0.242981,-0.136536,-0.091187,0.956055,5.470000,10.860000,32.550000,-19.333613,-10.239186,17.197509,51.920546,75.872145,18.589079,0.000000,0.000000,
210958863,47.285783,21.374438,2,0.353333,-0.130859,-0.091003,0.921814,6.030000,10.260000,27.830000,-19.258139,-5.554652,12.881547,52.459963,75.686471,14.410875,0.000000,0.000000,
210968343,48.413072,21.365157,2,0.455078,-0.124573,-0.088623,0.877197,6.130000,9.190000,24.960000,-17.998456,-1.257742,10.680506,52.916371,75.497473,11.680055,0.000000,0.000000,
210978078,47.759325,21.379078,2,0.547424,-0.117981,-0.084351,0.824219,7.140000,8.670000,21.800000,-16.558384,3.021233,8.028379,53.319242,75.209725,9.006842,0.000000,0.000000,
210988822,47.943651,21.369798,2,0.629944,-0.111206,-0.078369,0.764587,7.890000,7.010000,18.480000,-13.019884,6.745881,5.610968,53.781358,74.891368,6.520889,0.000000,0.000000,
210998288,48.887193,21.369798,2,0.703003,-0.104248,-0.071106,0.699951,7.620000,6.380000,16.530000,-10.170561,8.378667,4.281535,54.175575,74.585147,4.881567,0.000000,0.000000,
211008036,49.264757,21.369798,2,0.766541,-0.097168,-0.062988,0.631653,10.630000,6.260000,13.770000,-6.943113,12.519375,1.889059,54.587390,74.258329,2.690898,0.000000,0.000000,
211019016,50.774034,21.369798,2,0.821350,-0.089844,-0.054504,0.560669,10.760000,5.780000,11.800000,-3.580338,13.077826,0.417154,55.157976,73.996586,1.026402,0.000000,0.000000,
211028533,51.528734,21.369798,2,0.867859,-0.082214,-0.045959,0.487854,11.800000,5.300000,10.630000,-0.010313,13.818710,-0.360177,55.629338,73.737540,0.011355,0.000000,0.000000,
211039484,52.473131,21.369798,2,0.906433,-0.074036,-0.038025,0.414001,12.180000,4.980000,8.790000,3.122015,13.331893,-1.869010,56.234304,73.496832,-1.365168,0.000000,0.000000,
211048761,52.946916,21.374438,2,0.937805,-0.065369,-0.030884,0.339600,11.450000,4.670000,7.830000,5.036911,11.684051,-2.568864,56.705352,73.241640,-2.246335,0.000000,0.000000,
211058463,53.702318,21.374438,2,0.962219,-0.055969,-0.024963,0.265320,11.970000,4.750000,6.820000,7.338966,10.841036,-3.388987,57.223719,72.999164,-3.082814,0.000000,0.000000,
211069162,54.456743,21.374438,2,0.980164,-0.045837,-0.020203,0.191772,11.430000,4.190000,5.610000,8.699521,8.639202,-4.373814,57.827564,72.760198,-4.027892,0.000000,0.000000,
211078602,55.212755,21.374438,2,0.992065,-0.035034,-0.016785,0.119446,11.240000,3.120000,4.500000,9.993986,5.995696,-5.262149,58.347077,72.527681,-4.931431,0.000000,0.000000,
211088379,55.875322,21.379078,2,0.998413,-0.023499,-0.014587,0.048706,10.710000,2.370000,3.980000,10.304244,3.582531,-5.657934,58.898196,72.300648,-5.463269,0.000000,0.000000,
211099367,56.345628,21.374438,2,0.999634,-0.011292,-0.013611,-0.020142,9.820000,1.620000,2.850000,9.798927,1.285715,-6.721745,59.529294,72.050242,-6.384538,0.000000,0.000000,
211108827,56.437090,21.369798,2,0.996094,0.001282,-0.013733,-0.086914,8.920000,1.050000,2.290000,8.907878,-0.503790,-7.267157,60.013206,71.765658,-7.030661,0.000000,0.000000,
211118685,56.533739,21.374438,2,0.988220,0.013977,-0.014954,-0.151550,8.750000,-0.950000,1.570000,8.016171,-3.564369,-8.038170,60.498488,71.444911,-7.768209,0.000000,0.000000,
211129464,57.008226,21.379078,2,0.976318,0.026733,-0.017151,-0.213867,7.410000,-2.060000,1.160000,5.824311,-5.021349,-8.600991,61.045556,71.110469,-8.377848,0.000000,0.000000,
211138939,57.008226,21.379078,2,0.960815,0.039368,-0.020142,-0.273743,7.050000,-2.950000,0.570000,4.417923,-6.251650,-9.364391,61.461520,70.740352,-9.100049,0.000000,0.000000,
211148691,57.575273,21.379078,2,0.941772,0.051453,-0.023743,-0.331482,6.320000,-3.460000,0.010000,2.777163,-6.642659,-10.115225,61.903450,70.372153,-9.843210,0.000000,0.000000,
211159804,57.667253,21.374438,2,0.919434,0.062866,-0.027710,-0.387146,5.470000,-5.570000,-0.470000,-0.073056,-7.724493,-11.018557,62.414910,69.956821,-10.703624,0.000000,0.000000,
211169260,59.361772,21.365157,2,0.894104,0.073425,-0.032043,-0.440674,4.750000,-6.260000,-0.840000,-1.903831,-7.435243,-11.668306,62.881304,69.633310,-11.409821,0.000000,0.000000,
211178930,59.933611,21.374438,2,0.865784,0.083069,-0.036377,-0.492126,4.460000,-7.100000,-1.070000,-3.566022,-7.271107,-12.212589,63.366462,69.310486,-11.997488,0.000000,0.000000,
211189621,59.933611,21.374438,2,0.834595,0.091736,-0.040527,-0.541626,4.060000,-7.470000,-1.340000,-4.809525,-6.515052,-12.710614,63.888201,68.936909,-12.519533,0.000000,0.000000,
211199075,61.633195,21.374438,2,0.800659,0.099121,-0.044189,-0.589172,4.130000,-7.850000,-1.800000,-5.747785,-5.983748,-13.402003,64.395773,68.653034,-13.165547,0.000000,0.000000,
211208790,61.822466,21.374438,2,0.763916,0.105347,-0.047180,-0.634888,3.750000,-8.120000,-2.160000,-6.637167,-4.844989,-13.926986,64.898453,68.339270,-13.722960,0.000000,0.000000,
211219814,62.577470,21.374438,2,0.724609,0.110168,-0.049438,-0.678528,3.190000,-7.950000,-2.470000,-6.944594,-3.375914,-14.253916,65.503281,68.021611,-14.111647,0.000000,0.000000,
211229407,63.430284,21.379078,2,0.682678,0.113647,-0.050903,-0.720032,3.350000,-8.200000,-2.520000,-7.519835,-2.608393,-14.434532,66.023184,67.738542,-14.348015,0.000000,0.000000,
211239220,63.619585,21.379078,2,0.638306,0.115784,-0.051514,-0.759277,2.810000,-7.430000,-2.950000,-6.837986,-1.208120,-14.646473,66.534318,67.427697,-14.566502,0.000000,0.000000,
211249712,64.558855,21.369798,2,0.591675,0.116577,-0.051331,-0.796021,2.290000,-7.120000,-3.180000,-6.459200,0.093371,-14.723776,67.115287,67.136031,-14.681635,0.000000,0.000000,
211259326,65.223039,21.374438,2,0.542908,0.116150,-0.050354,-0.830200,2.220000,-6.490000,-3.330000,-5.794321,0.747569,-14.693441,67.639680,66.862892,-14.690278,0.000000,0.000000,
211269342,65.509111,21.379078,2,0.492249,0.114441,-0.048706,-0.861511,1.410000,-5.860000,-3.540000,-4.719208,1.881078,-14.594326,68.173185,66.568565,-14.620036,0.000000,0.000000,
211280366,65.131487,21.379078,2,0.439941,0.111633,-0.046448,-0.889832,0.860000,-5.360000,-3.670000,-3.762358,2.639935,-14.463070,68.712559,66.197485,-14.505129,0.000000,0.000000,
211289838,66.167619,21.374438,2,0.386108,0.107910,-0.043762,-0.915100,0.320000,-5.190000,-3.730000,-2.967831,3.408172,-14.334081,69.176890,65.883544,-14.379914,0.000000,0.000000,
211300577,66.260210,21.369798,2,0.331116,0.103394,-0.040710,-0.937012,-0.780000,-4.770000,-4.000000,-1.435195,4.163438,-14.261550,69.697850,65.526789,-14.293266,0.000000,0.000000,
211310031,66.729967,21.365157,2,0.275146,0.098267,-0.037354,-0.955627,-1.070000,-4.650000,-3.920000,-0.700386,4.440694,-14.033019,70.127703,65.186060,-14.102753,0.000000,0.000000,
211319629,66.729967,21.365157,2,0.218506,0.092651,-0.033875,-0.970825,-2.200000,-4.940000,-3.980000,0.669931,5.305412,-13.863534,70.536584,64.815561,-13.927633,0.000000,0.000000,
211332342,67.680406,21.374438,2,0.161377,0.086853,-0.030151,-0.982605,-2.810000,-4.650000,-4.110000,2.028376,5.019261,-13.793948,71.177328,64.440943,-13.829769,0.000000,0.000000,
211341202,67.674699,21.365157,2,0.104004,0.080994,-0.026245,-0.990906,-2.960000,-4.790000,-4.130000,2.691280,5.001968,-13.738376,71.524021,64.070862,-13.762865,0.000000,0.000000,
211350375,68.527940,21.369798,2,0.046448,0.075195,-0.022156,-0.995850,-2.810000,-4.840000,-4.100000,2.964581,4.931402,-13.681221,71.920276,63.734547,-13.703098,0.000000,0.000000,
211364804,68.998308,21.365157,2,-0.010986,0.069702,-0.017822,-0.997375,-2.830000,-4.080000,-4.170000,3.574138,3.701350,-13.673282,72.651593,63.332695,-13.681271,0.000000,0.000000,
211373083,69.381792,21.374438,2,-0.068298,0.064453,-0.013123,-0.995483,-2.290000,-5.090000,-4.170000,3.561109,4.414503,-13.722340,72.965760,62.983853,-13.711337,0.000000,0.000000,
211381973,70.321581,21.365157,2,-0.125000,0.059631,-0.008240,-0.990295,-2.640000,-3.190000,-4.250000,3.893622,2.139535,-13.704267,73.356197,62.674190,-13.706162,0.000000,0.000000,
211391714,70.699907,21.365157,2,-0.181091,0.055237,-0.003174,-0.981934,-2.620000,-3.900000,-4.210000,4.331702,2.436124,-13.642555,73.796645,62.354048,-13.659599,0.000000,0.000000,
211400679,70.991319,21.379078,2,-0.236084,0.051025,0.002197,-0.970398,-3.310000,-4.000000,-4.250000,5.185040,1.959428,-13.590911,74.176471,62.034841,-13.609316,0.000000,0.000000,
211410308,72.304430,21.360517,2,-0.289917,0.047119,0.007751,-0.955872,-2.890000,-3.870000,-4.250000,4.944804,1.559689,-13.623996,74.654159,61.772795,-13.620063,0.000000,0.000000,
211421095,72.785387,21.374438,2,-0.342407,0.043396,0.013489,-0.938477,-3.100000,-3.880000,-4.360000,5.258017,0.956183,-13.703993,75.200837,61.494596,-13.681505,0.000000,0.000000,
211430574,73.352220,21.374438,3,-0.393494,0.040100,0.019348,-0.918274,-3.190000,-2.540000,-4.230000,4.406711,-0.538367,-13.654672,75.665511,61.235448,-13.661862,0.000000,0.000000,
211440269,73.725450,21.365157,3,-0.443054,0.037048,0.025391,-0.895386,-2.870000,-2.140000,-4.270000,3.820354,-0.934599,-13.757921,76.135210,60.966321,-13.732183,0.020000,0.020000,
211452178,73.822282,21.369798,3,-0.490906,0.034241,0.031494,-0.869934,-2.720000,-2.330000,-4.290000,3.786698,-1.216998,-13.782718,76.712976,60.640589,-13.769177,0.042000,0.042000,
211461072,74.865556,21.374438,3,-0.536865,0.031799,0.037537,-0.842224,-2.620000,-2.930000,-4.190000,4.148110,-1.028337,-13.646577,77.134021,60.388568,-13.679428,0.046875,0.046875,
211470610,74.487077,21.374438,3,-0.580688,0.029541,0.043396,-0.812439,-2.540000,-1.370000,-4.110000,2.522298,-1.807595,-13.753060,77.540962,60.071407,-13.733331,0.026875,0.026875,
211482170,75.146684,21.369798,3,-0.622375,0.027466,0.049011,-0.780701,-2.870000,-1.450000,-4.250000,2.478649,-2.455859,-13.914306,78.081920,59.742842,-13.865814,0.006875,0.006875,
211490997,75.994829,21.365157,3,-0.662048,0.025635,0.054504,-0.747070,-2.220000,-1.110000,-4.110000,1.820723,-1.874598,-13.828249,78.475717,59.473006,-13.838315,0.000000,0.000000,
211501589,76.660265,21.369798,3,-0.699463,0.023865,0.059814,-0.711731,-2.310000,-0.570000,-4.210000,1.109636,-2.073270,-14.023066,78.989239,59.196923,-13.973563,0.000000,0.000000,
211511016,76.660265,21.369798,3,-0.734558,0.022156,0.064880,-0.675049,-2.260000,-0.280000,-4.310000,0.643060,-2.034607,-14.184803,79.398317,58.898771,-14.128202,0.000000,0.000000,
211520588,77.611131,21.379078,3,-0.767395,0.020447,0.069580,-0.637085,-1.990000,0.220000,-4.210000,-0.003727,-1.668972,-14.154987,79.847744,58.637561,-14.147810,0.000000,0.000000,
211531659,77.983995,21.369798,3,-0.797852,0.018738,0.073975,-0.598022,-2.660000,0.340000,-4.150000,-0.466295,-2.199009,-14.199688,80.377381,58.349555,-14.185788,0.000000,0.000000,
211540938,78.173540,21.369798,3,-0.825989,0.016968,0.077942,-0.558044,-2.140000,0.590000,-4.110000,-0.706885,-1.510680,-14.163722,80.777815,58.062302,-14.169635,0.000000,0.000000,
211550762,79.211534,21.365157,3,-0.851807,0.015137,0.081360,-0.517273,-2.430000,0.170000,-4.060000,-0.610987,-1.830358,-14.124581,81.247865,57.813264,-14.136653,0.000000,0.000000,
211561439,80.914262,21.365157,3,-0.875366,0.013123,0.084290,-0.475952,-1.950000,0.450000,-4.100000,-0.752939,-1.146063,-14.152127,81.843087,57.638690,-14.147981,0.000000,0.000000,
211571010,80.157396,21.365157,3,-0.896606,0.011047,0.086609,-0.434143,-2.200000,0.900000,-3.880000,-1.391166,-0.935981,-14.025080,82.286731,57.385291,-14.058012,0.000000,0.000000,
211580729,81.109087,21.374438,3,-0.915588,0.008850,0.088379,-0.392151,-1.340000,0.530000,-4.080000,-0.586075,-0.380342,-14.071128,82.768834,57.165463,-14.067614,0.000000,0.000000,
211591789,81.676408,21.374438,3,-0.932495,0.006592,0.089661,-0.349854,-1.550000,0.030000,-3.980000,-0.475535,-0.791561,-13.967432,83.330631,56.933984,-13.994276,0.000000,0.000000,
211601237,82.525591,21.369798,3,-0.947205,0.004089,0.090393,-0.307495,-1.930000,1.180000,-4.000000,-1.521666,0.024066,-14.134690,83.816584,56.743265,-14.097067,0.000000,0.000000,
211611016,83.094041,21.369798,3,-0.959961,0.001587,0.090637,-0.265076,-1.660000,0.380000,-3.960000,-0.893719,-0.337468,-14.001584,84.324786,56.555242,-14.027168,0.000000,0.000000,
211622001,82.617815,21.365157,3,-0.970642,-0.001038,0.090515,-0.222839,-1.660000,0.700000,-3.960000,-1.068566,0.078224,-14.013612,84.836370,56.280691,-14.017245,0.000000,0.000000,
211631449,83.942827,21.365157,3,-0.979370,-0.003723,0.089966,-0.180725,-1.280000,1.110000,-3.900000,-0.884840,0.733778,-13.890745,85.310498,56.085941,-13.924641,0.000000,0.000000,
211641048,84.321642,21.365157,3,-0.986267,-0.006470,0.088928,-0.138916,-0.840000,0.610000,-3.940000,-0.268834,0.500088,-13.837951,85.785223,55.883026,-13.861179,0.000000,0.000000,
211651956,84.510820,21.365157,3,-0.991333,-0.009277,0.087524,-0.097534,-0.680000,0.990000,-3.830000,-0.184201,0.980991,-13.688924,86.312732,55.643519,-13.735080,0.000000,0.000000,
211661454,86.117509,21.360517,3,-0.994629,-0.012146,0.085815,-0.056763,-1.220000,0.320000,-4.020000,-0.544557,0.320841,-13.961086,86.828142,55.496961,-13.900528,0.000000,0.000000,
211672403,86.214433,21.365157,3,-0.996216,-0.015076,0.083740,-0.016357,0.050000,0.420000,-3.920000,0.686612,0.557146,-13.645072,87.395802,55.303945,-13.713522,0.000000,0.000000,
211681843,86.219652,21.374438,3,-0.996216,-0.018127,0.081360,0.023560,-1.090000,0.900000,-3.960000,-0.388134,1.082338,-13.850759,87.842155,55.089201,-13.813986,0.000000,0.000000,
211691487,86.599077,21.374438,3,-0.994690,-0.021118,0.078796,0.062744,0.570000,0.280000,-3.900000,1.215485,0.338312,-13.545665,88.293533,54.870172,-13.617562,0.000000,0.000000,
211702325,87.729631,21.365157,3,-0.991638,-0.024170,0.075928,0.101257,0.510000,1.070000,-3.850000,1.311521,1.066859,-13.462279,88.851446,54.684199,-13.503887,0.000000,0.000000,
211711674,88.206102,21.369798,3,-0.987183,-0.027283,0.072876,0.139160,0.530000,-0.170000,-3.790000,1.038888,-0.178855,-13.481896,89.320910,54.512111,-13.487789,0.000000,0.000000,
211721339,89.055315,21.365157,3,-0.981384,-0.030334,0.069824,0.176453,2.200000,0.820000,-3.710000,2.880042,0.127581,-13.122125,89.830236,54.366410,-13.220104,0.000000,0.000000,
211732377,90.099596,21.369798,3,-0.974182,-0.033447,0.066650,0.213196,1.200000,1.050000,-3.670000,2.045999,0.588528,-13.190216,90.446717,54.239913,-13.198225,0.000000,0.000000,
211741879,89.910326,21.369798,3,-0.965637,-0.036438,0.063538,0.249329,1.510000,0.570000,-3.650000,2.100788,-0.097123,-13.199421,90.927262,54.076179,-13.199101,0.000000,0.000000,
211751685,91.328050,21.365157,3,-0.955933,-0.039490,0.060669,0.284546,1.320000,0.990000,-3.670000,2.148717,0.256001,-13.200338,91.482467,53.975272,-13.200006,0.000000,0.000000,
211762431,91.046465,21.369798,3,-0.945068,-0.042480,0.058105,0.318848,1.640000,1.160000,-3.390000,2.453853,0.069636,-12.884520,92.033919,53.805724,-12.969054,0.000000,0.000000,
211771873,91.707658,21.365157,3,-0.933167,-0.045410,0.055847,0.352173,0.930000,0.780000,-3.440000,1.680918,0.122846,-13.040584,92.520537,53.659256,-13.021418,0.000000,0.000000,
211781656,92.654680,21.365157,3,-0.920227,-0.048340,0.053894,0.384644,1.680000,0.510000,-3.500000,2.020267,-0.674647,-13.093792,93.053414,53.540714,-13.074399,0.000000,0.000000,
211792645,92.843462,21.365157,3,-0.906250,-0.051270,0.052185,0.416382,1.620000,0.680000,-3.390000,2.035477,-0.624906,-12.980421,93.627587,53.383106,-13.005603,0.000000,0.000000,
211802106,93.411943,21.365157,3,-0.891357,-0.054199,0.050659,0.447144,1.280000,-0.110000,-3.390000,1.145436,-0.918417,-13.112504,94.118278,53.243574,-13.083860,0.000000,0.000000,
211811966,94.450914,21.360517,3,-0.875793,-0.057068,0.049438,0.476746,1.070000,-0.110000,-3.420000,0.973845,-0.781779,-13.164067,94.663849,53.137511,-13.142575,0.000000,0.000000,
211822742,94.359636,21.365157,3,-0.859497,-0.059937,0.048462,0.505310,1.390000,0.130000,-3.420000,1.279835,-0.970150,-13.134361,95.216265,52.974285,-13.136562,0.000000,0.000000,
211832202,95.020006,21.360517,3,-0.842468,-0.062683,0.047729,0.533020,1.260000,-0.510000,-3.410000,0.590257,-1.169931,-13.231384,95.704268,52.835027,-13.205977,0.000000,0.000000,
211841966,95.398729,21.360517,3,-0.824707,-0.065430,0.047241,0.559753,1.010000,0.030000,-3.330000,0.910715,-0.747901,-13.073780,96.200027,52.685559,-13.109202,0.000000,0.000000,
211852804,96.254259,21.365157,3,-0.806274,-0.068054,0.046875,0.585754,1.280000,0.210000,-3.370000,1.120244,-0.966633,-13.097888,96.773729,52.547468,-13.100920,0.000000,0.000000,
211862432,97.012834,21.365157,3,-0.787048,-0.070618,0.046631,0.611023,0.550000,-0.910000,-3.350000,-0.191330,-0.564508,-13.261071,97.294315,52.436892,-13.218159,0.000000,0.000000,
211872244,96.822923,21.365157,3,-0.767212,-0.073059,0.046509,0.635559,0.680000,-1.220000,-3.420000,-0.485094,-0.705874,-13.387900,97.778072,52.271819,-13.342418,0.000000,0.000000,
211883047,98.241594,21.360517,3,-0.746643,-0.075378,0.046509,0.659302,0.860000,-0.610000,-3.370000,0.085569,-0.748724,-13.251833,98.371615,52.161743,-13.276105,0.000000,0.000000,
211892540,98.712785,21.355877,3,-0.725464,-0.077637,0.046448,0.682312,0.680000,-1.410000,-3.390000,-0.749681,-0.583107,-13.408154,98.887986,52.058915,-13.372771,0.000000,0.000000,
211903522,98.907945,21.365157,3,-0.703491,-0.079834,0.046448,0.704651,0.490000,-0.990000,-3.290000,-0.385904,-0.327527,-13.229714,99.460180,51.915007,-13.268046,0.000000,0.000000,
211912929,99.287859,21.365157,3,-0.680908,-0.081909,0.046265,0.726318,0.610000,-0.240000,-3.290000,0.329776,-0.437023,-13.111420,99.936947,51.779317,-13.153388,0.000000,0.000000,
211922605,99.953752,21.369798,3,-0.657593,-0.083862,0.045959,0.747314,0.630000,-2.120000,-3.310000,-1.524273,-0.203136,-13.467956,100.438396,51.650201,-13.383668,0.000000,0.000000,
211933508,100.143724,21.369798,3,-0.633606,-0.085632,0.045471,0.767578,0.300000,-2.080000,-3.140000,-1.459373,0.231174,-13.276594,100.981912,51.484334,-13.305284,0.000000,0.000000,
211942934,100.993394,21.365157,3,-0.608948,-0.087280,0.044800,0.787109,0.680000,-1.410000,-3.250000,-0.879113,-0.181385,-13.291099,101.467348,51.359882,-13.294900,0.000000,0.000000,
211952645,101.465227,21.360517,3,-0.583618,-0.088745,0.043945,0.805969,0.840000,-2.030000,-3.060000,-1.551142,-0.048251,-13.232578,101.965346,51.231229,-13.249277,0.000000,0.000000,
211963699,101.470445,21.369798,3,-0.557556,-0.090088,0.042847,0.824097,0.440000,-1.720000,-3.080000,-1.112509,0.332327,-13.160379,102.499210,51.050329,-13.184199,0.000000,0.000000,
211973134,102.889757,21.365157,3,-0.530823,-0.091248,0.041565,0.841553,0.220000,-1.340000,-3.100000,-0.661730,0.465732,-13.081315,103.005276,50.955056,-13.108883,0.000000,0.000000,
211982896,103.269792,21.365157,3,-0.503540,-0.092224,0.040039,0.858093,1.070000,-1.850000,-3.120000,-1.469019,0.052028,-13.278953,103.518965,50.844395,-13.233383,0.000000,0.000000,
211993780,103.086046,21.374438,3,-0.475708,-0.092957,0.038269,0.873840,0.680000,-1.870000,-3.140000,-1.273233,0.518889,-13.249809,104.043885,50.669195,-13.245408,0.000000,0.000000,
212003261,103.745927,21.369798,3,-0.447388,-0.093384,0.036316,0.888733,0.610000,-1.490000,-3.060000,-0.917475,0.464386,-13.096209,104.504636,50.523624,-13.136187,0.000000,0.000000,
212012935,104.034105,21.374438,3,-0.418579,-0.093567,0.034180,0.902710,0.530000,-1.550000,-3.000000,-0.898007,0.651653,-13.035251,104.962726,50.363774,-13.062297,0.000000,0.000000,
212023991,104.975999,21.365157,3,-0.389343,-0.093506,0.031860,0.915771,-0.130000,-1.130000,-3.060000,-0.103108,0.922786,-12.929216,105.519611,50.221730,-12.964875,0.000000,0.000000,
212033233,105.728410,21.355877,3,-0.359558,-0.093201,0.029419,0.927979,-0.050000,-1.490000,-2.950000,-0.370781,1.176194,-12.863110,105.996572,50.117932,-12.890378,0.000000,0.000000,
212043090,105.637041,21.360517,3,-0.329468,-0.092590,0.026794,0.939270,0.130000,-0.800000,-3.120000,0.009103,0.577608,-12.973133,106.466978,49.964290,-12.950959,0.000000,0.000000,
212053782,106.493425,21.365157,3,-0.299072,-0.091858,0.023987,0.949524,0.340000,-0.860000,-2.950000,-0.192082,0.539501,-12.832501,107.002157,49.828950,-12.864242,0.000000,0.000000,
212063415,106.016130,21.360517,3,-0.268433,-0.091064,0.021118,0.958740,-0.240000,-1.200000,-3.040000,0.157124,1.170880,-12.855640,107.418502,49.634194,-12.857945,0.000000,0.000000,
212074218,107.436601,21.355877,3,-0.237610,-0.090149,0.018127,0.966980,-0.840000,-1.160000,-3.000000,0.757391,1.439194,-12.705081,107.955122,49.498200,-12.746041,0.000000,0.000000,
212083699,107.822038,21.365157,3,-0.206604,-0.089111,0.015076,0.974243,0.170000,-0.700000,-3.020000,0.114466,0.585773,-12.844886,108.415317,49.366795,-12.818400,0.000000,0.000000,
212093327,108.005876,21.355877,3,-0.175476,-0.087952,0.012024,0.980469,-0.840000,-1.140000,-3.000000,0.925645,1.381873,-12.676156,108.863865,49.215345,-12.714270,0.000000,0.000000,
212105387,108.580400,21.365157,3,-0.144348,-0.086670,0.008850,0.985657,-0.840000,-1.030000,-2.950000,1.055708,1.140871,-12.609701,109.438336,49.042894,-12.637720,0.000000,0.000000,
212114275,109.150255,21.365157,3,-0.113098,-0.085388,0.005676,0.989868,-0.340000,-0.550000,-2.950000,0.710702,0.637636,-12.669365,109.855261,48.909363,-12.660886,0.000000,0.000000,
212123770,109.535783,21.374438,3,-0.081848,-0.084167,0.002441,0.993103,-0.680000,-0.900000,-3.000000,1.022460,1.023818,-12.659031,110.298649,48.766163,-12.659528,0.000000,0.000000,
212135335,110.001207,21.360517,3,-0.050598,-0.082886,-0.000793,0.995300,-0.680000,-0.680000,-2.910000,1.117115,0.670642,-12.561707,110.842745,48.599491,-12.587918,0.000000,0.000000,
212144206,110.282243,21.355877,3,-0.019470,-0.081604,-0.004089,0.996460,-0.510000,-0.650000,-2.950000,0.961537,0.711268,-12.624279,111.237468,48.446878,-12.614536,0.000000,0.000000,
212153676,111.426897,21.365157,3,0.011597,-0.080383,-0.007385,0.996643,-0.990000,-0.680000,-2.890000,1.463583,0.695080,-12.478925,111.707815,48.342317,-12.515262,0.000000,0.000000,
212164756,111.145311,21.369798,3,0.042542,-0.079163,-0.010620,0.995911,-0.740000,-0.900000,-2.930000,1.274752,0.877692,-12.555391,112.206696,48.162931,-12.544638,0.000000,0.000000,
212174055,111.996416,21.365157,3,0.073242,-0.077942,-0.013916,0.994141,-0.760000,-0.450000,-2.850000,1.264140,0.380739,-12.481813,112.640571,48.031722,-12.498647,0.000000,0.000000,
212183812,112.565935,21.365157,3,0.103699,-0.076782,-0.017151,0.991516,-0.300000,-0.910000,-2.770000,0.915418,0.885227,-12.445416,113.103856,47.904934,-12.459679,0.000000,0.000000,
212194547,112.565935,21.365157,3,0.134033,-0.075684,-0.020325,0.987854,-0.470000,-0.530000,-2.790000,1.021475,0.441771,-12.455903,113.583001,47.732675,-12.456915,0.000000,0.000000,
212204180,113.514879,21.365157,3,0.164124,-0.074646,-0.023560,0.983337,-0.170000,-0.240000,-2.810000,0.673842,0.235697,-12.534316,114.037868,47.607011,-12.513577,0.000000,0.000000,
212213898,113.986253,21.360517,3,0.193848,-0.073669,-0.026733,0.977905,0.440000,-0.320000,-2.810000,0.153167,0.532662,-12.608583,114.496615,47.480771,-12.583126,0.000000,0.000000,
212224975,114.745592,21.360517,3,0.223206,-0.072693,-0.029846,0.971619,0.150000,-0.440000,-2.830000,0.499084,0.537502,-12.574408,115.037715,47.359326,-12.576744,0.000000,0.000000,
212234376,114.464433,21.365157,3,0.252258,-0.071777,-0.032959,0.964417,-0.190000,-0.210000,-2.680000,0.688161,0.167877,-12.403445,115.445710,47.201417,-12.449880,0.000000,0.000000,
212245182,115.603777,21.365157,3,0.280823,-0.070740,-0.035950,0.956482,0.320000,-0.010000,-2.730000,0.172688,0.259572,-12.533437,115.965151,47.077362,-12.511048,0.000000,0.000000,
212254640,115.701524,21.369798,3,0.309021,-0.069702,-0.038940,0.947693,-0.530000,-0.280000,-2.680000,1.015707,-0.005930,-12.359122,116.392986,46.941478,-12.399830,0.000000,0.000000,
212264263,116.644487,21.360517,3,0.336792,-0.068604,-0.041870,0.938171,0.680000,0.450000,-2.770000,-0.359973,0.175868,-12.664392,116.860190,46.837689,-12.593503,0.000000,0.000000,
212275243,116.650774,21.369798,3,0.364075,-0.067383,-0.044739,0.927856,0.550000,0.400000,-2.660000,-0.240620,0.171837,-12.525978,117.360316,46.685106,-12.544071,0.000000,0.000000,
212284556,117.600084,21.369798,3,0.390869,-0.066162,-0.047485,0.916870,-0.670000,-0.130000,-2.750000,0.991141,-0.301213,-12.438605,117.809903,46.586608,-12.466865,0.000000,0.000000,
212294275,117.980150,21.369798,3,0.417114,-0.064819,-0.050110,0.905151,0.260000,0.300000,-2.660000,0.038529,0.106997,-12.487596,118.272970,46.477472,-12.482041,0.000000,0.000000,
212305331,118.451189,21.365157,3,0.442932,-0.063416,-0.052551,0.892761,0.510000,0.300000,-2.660000,-0.113408,0.323712,-12.505588,118.797461,46.351999,-12.499279,0.000000,0.000000,
212314797,118.733507,21.360517,3,0.468201,-0.061829,-0.054810,0.879761,-0.760000,0.010000,-2.700000,0.849497,-0.533867,-12.424200,119.231582,46.229799,-12.444317,0.000000,0.000000,
212324508,119.591508,21.365157,3,0.492920,-0.060181,-0.056885,0.866150,0.400000,0.070000,-2.600000,0.162514,0.412624,-12.397795,119.702950,46.135288,-12.410260,0.000000,0.000000,
212335255,119.499498,21.369798,3,0.517029,-0.058533,-0.058838,0.851929,0.010000,0.050000,-2.600000,0.375452,0.091046,-12.376596,120.185038,45.987665,-12.385616,0.000000,0.000000,
212344812,119.971117,21.365157,3,0.540588,-0.056763,-0.060608,0.837158,0.090000,-0.510000,-2.560000,0.842300,0.387178,-12.248135,120.610300,45.855219,-12.284973,0.000000,0.000000,
212354511,121.294664,21.355877,3,0.563599,-0.054993,-0.062195,0.821838,0.610000,0.130000,-2.700000,0.098489,0.623368,-12.501445,121.098203,45.783155,-12.443441,0.000000,0.000000,
212365569,120.829759,21.369798,3,0.585999,-0.053101,-0.063660,0.806030,0.550000,-0.190000,-2.520000,0.421281,0.677662,-12.263697,121.586555,45.628220,-12.311859,0.000000,0.000000,
212375061,121.681139,21.365157,3,0.607849,-0.051208,-0.065002,0.789734,-0.260000,-0.280000,-2.660000,0.767538,-0.079328,-12.380021,122.025152,45.517517,-12.361757,0.000000,0.000000,
212384834,122.630907,21.365157,3,0.629150,-0.049255,-0.066162,0.772888,0.740000,-0.260000,-2.500000,0.497303,0.886713,-12.221302,122.508155,45.441666,-12.258937,0.000000,0.000000,
212395603,122.446794,21.374438,3,0.649780,-0.047302,-0.067322,0.755615,0.510000,-0.190000,-2.580000,0.517479,0.642666,-12.308508,122.992875,45.304721,-12.295225,0.000000,0.000000,
212405071,123.201036,21.365157,3,0.669922,-0.045349,-0.068359,0.737915,-0.090000,-0.570000,-2.410000,0.955054,0.062327,-12.088817,123.434608,45.205346,-12.144124,0.000000,0.000000,
212415952,123.384111,21.355877,3,0.689453,-0.043335,-0.069397,0.719727,0.780000,-0.170000,-2.500000,0.531597,0.892499,-12.213659,123.922529,45.068839,-12.195027,0.000000,0.000000,
212425148,124.052599,21.360517,3,0.708435,-0.041260,-0.070312,0.701050,0.590000,0.070000,-2.410000,0.313782,0.696526,-12.164333,124.344796,44.966390,-12.172557,0.000000,0.000000,
212434852,124.058885,21.369798,3,0.726868,-0.039185,-0.071289,0.681946,0.070000,-0.950000,-2.470000,1.329812,0.107539,-12.086755,124.762305,44.828541,-12.109746,0.000000,0.000000,
212445853,124.720628,21.365157,3,0.744690,-0.036987,-0.072205,0.662415,0.150000,-0.530000,-2.430000,0.924752,0.186791,-12.107014,125.252065,44.692360,-12.107746,0.000000,0.000000,
212455353,125.100938,21.365157,3,0.761963,-0.034790,-0.073120,0.642578,0.570000,-0.240000,-2.330000,0.691619,0.618813,-12.024358,125.666430,44.567242,-12.046702,0.000000,0.000000,
212465194,125.953203,21.360517,3,0.778564,-0.032532,-0.074036,0.622314,-0.030000,-1.130000,-2.310000,1.442814,-0.182759,-11.918711,126.122783,44.470582,-11.953006,0.000000,0.000000,
212475981,126.909654,21.369798,3,0.794617,-0.030273,-0.074951,0.601746,0.590000,-0.450000,-2.390000,0.961114,0.542811,-12.045069,126.652140,44.397230,-12.020401,0.000000,0.000000,
212485315,126.811815,21.365157,3,0.809998,-0.027954,-0.075806,0.580872,0.380000,-0.530000,-2.330000,0.985208,0.289933,-11.991176,127.076241,44.296845,-11.999006,0.000000,0.000000,
212494922,127.191179,21.365157,3,0.824707,-0.025574,-0.076660,0.559753,0.340000,-1.370000,-2.350000,1.753739,-0.085677,-11.907306,127.508601,44.190716,-11.931877,0.000000,0.000000,
212505909,128.043596,21.360517,3,0.838867,-0.023193,-0.077515,0.538269,0.450000,-1.030000,-2.200000,1.450208,0.074073,-11.796335,128.027633,44.099424,-11.832653,0.000000,0.000000,
212515493,128.424028,21.360517,3,0.852478,-0.020996,-0.078491,0.516418,0.950000,-1.390000,-2.260000,2.010921,0.299923,-11.758966,128.475112,44.015351,-11.778711,0.000000,0.000000,
212525326,128.332445,21.365157,3,0.865540,-0.018799,-0.079468,0.494141,1.110000,-1.490000,-2.240000,2.184206,0.295386,-11.711563,128.898228,43.889926,-11.729555,0.000000,0.000000,
212536075,128.810777,21.369798,3,0.878113,-0.016663,-0.080505,0.471375,0.720000,-0.900000,-2.260000,1.490112,0.204923,-11.846502,129.363717,43.756332,-11.815166,0.000000,0.000000,
212545516,129.472826,21.365157,3,0.890015,-0.014587,-0.081726,0.448303,0.970000,-0.970000,-2.280000,1.707619,0.309235,-11.827649,129.783275,43.652541,-11.824304,0.000000,0.000000,
212555230,129.944933,21.360517,3,0.901306,-0.012573,-0.083130,0.424927,0.740000,-0.990000,-2.290000,1.591987,0.046116,-11.859877,130.217089,43.548961,-11.850345,0.000000,0.000000,
212566231,130.331194,21.369798,3,0.911987,-0.010559,-0.084656,0.401306,0.650000,-1.130000,-2.240000,1.625194,-0.182718,-11.816193,130.702758,43.427150,-11.825344,0.000000,0.000000,
212575840,130.803850,21.365157,3,0.921936,-0.008545,-0.086304,0.377441,0.740000,-0.820000,-2.290000,1.472766,0.045238,-11.872475,131.125971,43.320357,-11.859846,0.000000,0.000000,
212586725,131.374437,21.365157,3,0.931274,-0.006470,-0.088074,0.353394,0.650000,-0.610000,-2.200000,1.257214,0.077365,-11.818457,131.612727,43.209600,-11.829547,0.000000,0.000000,
212596175,132.036638,21.360517,3,0.940002,-0.004333,-0.090027,0.329041,0.530000,-1.030000,-2.290000,1.437797,-0.361585,-11.894275,132.047681,43.127875,-11.876931,0.000000,0.000000,
212605733,132.508867,21.355877,3,0.948059,-0.002197,-0.091980,0.304504,0.130000,-0.720000,-2.220000,0.915011,-0.392283,-11.921367,132.488857,43.047189,-11.909460,0.000000,0.000000,
212616655,132.895769,21.365157,3,0.955444,0.000000,-0.094055,0.279785,0.030000,-0.900000,-2.260000,0.916943,-0.628090,-11.970038,132.984349,42.945731,-11.953807,0.000000,0.000000,
212626026,133.269579,21.355877,3,0.962158,0.002258,-0.096191,0.254883,-0.220000,-1.110000,-2.200000,0.770935,-0.960363,-11.950713,133.404530,42.854367,-11.951542,0.000000,0.000000,
212635892,133.374284,21.369798,3,0.968201,0.004456,-0.098267,0.229919,-0.420000,-0.490000,-2.260000,0.284388,-0.508397,-12.077534,133.824805,42.733038,-12.043774,0.000000,0.000000,
212646893,133.937669,21.360517,3,0.973633,0.006714,-0.100220,0.204773,-0.380000,-0.190000,-2.180000,0.155689,-0.211175,-12.003677,134.301411,42.609090,-12.014421,0.000000,0.000000,
212656394,134.226701,21.365157,3,0.978394,0.008911,-0.102112,0.179504,-0.630000,-0.590000,-2.220000,0.072191,-0.659607,-12.095639,134.700906,42.488738,-12.073876,0.000000,0.000000,
212666077,134.987016,21.365157,3,0.982483,0.011108,-0.103882,0.154236,-0.990000,-0.760000,-2.200000,-0.240309,-0.911100,-12.152587,135.130058,42.391690,-12.131496,0.000000,0.000000,
212677161,134.515215,21.369798,3,0.985962,0.013306,-0.105469,0.128906,-0.340000,-0.070000,-2.180000,0.147160,-0.045167,-12.003631,135.559825,42.214365,-12.037892,0.000000,0.000000,
212686363,134.895372,21.369798,3,0.988770,0.015564,-0.106812,0.103638,-0.630000,-0.220000,-2.140000,-0.110926,-0.224174,-12.025175,135.905219,42.055601,-12.028583,0.000000,0.000000,
212696189,136.601060,21.360517,3,0.990906,0.017822,-0.107971,0.078369,-0.780000,-0.550000,-2.140000,-0.207597,-0.548043,-12.071605,136.362382,41.987096,-12.060077,0.000000,0.000000,
212707071,136.136003,21.374438,3,0.992432,0.020081,-0.108887,0.053162,-0.340000,-0.280000,-2.180000,0.165511,-0.193449,-12.008985,136.804086,41.840117,-12.022675,0.000000,0.000000,
212716565,136.699510,21.365157,3,0.993347,0.022400,-0.109619,0.028015,-1.430000,-0.550000,-2.240000,-0.867886,-0.501202,-12.321818,137.194053,41.715485,-12.241663,0.000000,0.000000,
212726289,136.988115,21.369798,3,0.993591,0.024719,-0.110046,0.002930,-1.110000,-1.160000,-2.160000,-0.593797,-1.046454,-12.202274,137.585945,41.581994,-12.212828,0.000000,0.000000,
212737379,137.742876,21.360517,3,0.993286,0.027100,-0.110291,-0.022095,-0.880000,0.130000,-2.140000,-0.375237,0.283548,-12.070154,138.056399,41.459369,-12.108384,0.000000,0.000000,
212746736,137.939287,21.369798,3,0.992371,0.029480,-0.110229,-0.047058,-1.140000,-0.550000,-2.080000,-0.686000,-0.327991,-12.113211,138.436303,41.337546,-12.111918,0.000000,0.000000,
212758638,138.883775,21.360517,3,0.990845,0.031738,-0.109863,-0.071960,-1.010000,-1.320000,-2.160000,-0.649405,-1.144445,-12.217804,138.956130,41.224436,-12.189431,0.000000,0.000000,
212767502,139.645464,21.360517,3,0.988708,0.033997,-0.109253,-0.096802,-0.440000,-0.450000,-2.050000,-0.044747,-0.253301,-11.923850,139.365320,41.169161,-11.995012,0.000000,0.000000,
212777014,139.553789,21.365157,3,0.986023,0.036255,-0.108337,-0.121399,-0.450000,-0.420000,-2.100000,-0.045966,-0.193742,-11.981756,139.768448,41.068816,-11.985308,0.000000,0.000000,
212788533,139.744493,21.365157,3,0.982727,0.038330,-0.107178,-0.145996,-0.490000,-0.930000,-2.030000,-0.226299,-0.744099,-11.973243,140.239190,40.929164,-11.976476,0.000000,0.000000,
212797317,140.131120,21.374438,3,0.978821,0.040344,-0.105835,-0.170410,-0.070000,-0.170000,-2.010000,0.332445,-0.044254,-11.790951,140.591336,40.817844,-11.840663,0.000000,0.000000,
212806837,140.610521,21.379078,3,0.974365,0.042236,-0.104370,-0.194763,-0.130000,-0.400000,-1.970000,0.170811,-0.231892,-11.791057,140.980617,40.706974,-11.804349,0.000000,0.000000,
212817791,140.793901,21.369798,3,0.969299,0.044006,-0.102783,-0.218933,0.070000,-0.240000,-1.970000,0.400082,-0.162113,-11.742682,141.413868,40.564904,-11.759206,0.000000,0.000000,
212827038,141.548418,21.360517,3,0.963684,0.045715,-0.101074,-0.242981,0.090000,-0.170000,-1.970000,0.430696,-0.111722,-11.729587,141.797084,40.466176,-11.737524,0.000000,0.000000,
212836893,142.027879,21.365157,3,0.957458,0.047363,-0.099243,-0.266724,0.090000,-0.240000,-1.870000,0.364966,-0.177115,-11.639592,142.210073,40.368056,-11.665833,0.000000,0.000000,
212847628,142.598558,21.365157,3,0.950745,0.048889,-0.097412,-0.290222,0.190000,-0.130000,-1.930000,0.505324,-0.143474,-11.674669,142.667606,40.270637,-11.672301,0.000000,0.000000,
212857251,142.309801,21.360517,3,0.943481,0.050415,-0.095581,-0.313354,-0.110000,0.010000,-1.870000,0.321314,0.134686,-11.638990,143.031693,40.132823,-11.647915,0.000000,0.000000,
212867036,142.795580,21.374438,3,0.935669,0.051880,-0.093689,-0.336182,0.030000,0.030000,-1.870000,0.445605,0.070455,-11.620467,143.408738,40.002124,-11.627822,0.000000,0.000000,
212878104,143.459062,21.369798,3,0.927429,0.053345,-0.091797,-0.358704,0.360000,0.010000,-1.870000,0.663900,-0.172383,-11.578308,143.853995,39.877575,-11.591575,0.000000,0.000000,
212887448,144.022997,21.360517,3,0.918640,0.054810,-0.089966,-0.380859,0.300000,0.190000,-1.780000,0.713495,-0.016455,-11.467354,144.236937,39.782695,-11.500639,0.000000,0.000000,
212897206,143.741014,21.365157,3,0.909363,0.056274,-0.088074,-0.402649,0.360000,0.190000,-1.800000,0.755270,-0.082135,-11.488363,144.592871,39.634881,-11.491652,0.000000,0.000000,
212907983,145.172441,21.369798,3,0.899658,0.057678,-0.086304,-0.424133,0.220000,0.240000,-1.800000,0.690973,0.038154,-11.495474,145.056437,39.552660,-11.494450,0.000000,0.000000,
212917469,145.355394,21.360517,3,0.889465,0.059204,-0.084534,-0.445190,0.380000,0.260000,-1.800000,0.796577,-0.101441,-11.475725,145.450254,39.465400,-11.480742,0.000000,0.000000,
212928334,145.270464,21.374438,3,0.878845,0.060730,-0.082825,-0.465881,0.550000,0.320000,-1.800000,0.928925,-0.224550,-11.450391,145.866859,39.328042,-11.458524,0.000000,0.000000,
212937669,145.736986,21.360517,3,0.867859,0.062256,-0.081238,-0.486145,0.010000,0.380000,-1.820000,0.696812,0.236141,-11.513924,146.225167,39.211146,-11.499080,0.000000,0.000000,
212947395,146.314165,21.369798,3,0.856506,0.063782,-0.079590,-0.505920,0.210000,0.740000,-1.720000,1.081679,0.217271,-11.332233,146.611696,39.107334,-11.376939,0.000000,0.000000,
212958235,147.069597,21.360517,3,0.844788,0.065430,-0.078125,-0.525330,0.550000,0.450000,-1.780000,0.999313,-0.241693,-11.423538,147.064250,39.016430,-11.411052,0.000000,0.000000,
212967699,147.076402,21.369798,3,0.832764,0.067078,-0.076782,-0.544189,-0.190000,0.220000,-1.760000,0.482687,0.305967,-11.493375,147.433761,38.908511,-11.471317,0.000000,0.000000,
212977551,147.739641,21.365157,3,0.820374,0.068848,-0.075439,-0.562622,0.010000,0.590000,-1.760000,0.906676,0.250702,-11.408498,147.836099,38.818130,-11.425330,0.000000,0.000000,
212988580,147.076402,21.369798,3,0.807678,0.070679,-0.074097,-0.580688,0.470000,0.670000,-1.760000,1.130264,-0.192062,-11.375917,148.214902,38.638023,-11.389157,0.000000,0.000000,
212997901,148.028520,21.369798,3,0.794678,0.072571,-0.072876,-0.598267,0.050000,0.070000,-1.740000,0.437280,0.017366,-11.483834,148.562610,38.517460,-11.458465,0.000000,0.000000,
213007605,149.072496,21.365157,3,0.781433,0.074585,-0.071716,-0.615417,0.030000,0.030000,-1.640000,0.378767,0.017507,-11.396314,148.968458,38.443591,-11.412968,0.000000,0.000000,
213018686,148.698625,21.374438,3,0.767883,0.076660,-0.070496,-0.632080,0.210000,0.300000,-1.660000,0.676265,-0.101659,-11.360602,149.376484,38.298291,-11.374633,0.000000,0.000000,
213028177,149.453722,21.365157,3,0.754028,0.078796,-0.069397,-0.648376,0.210000,0.170000,-1.640000,0.543154,-0.138512,-11.372406,149.744408,38.195945,-11.373003,0.000000,0.000000,
213037888,148.980730,21.369798,3,0.739929,0.080994,-0.068298,-0.664307,0.150000,-0.070000,-1.680000,0.302048,-0.103014,-11.457175,150.065928,38.029629,-11.434621,0.000000,0.000000,
213048605,150.306932,21.360517,3,0.725586,0.083252,-0.067200,-0.679810,0.220000,0.420000,-1.660000,0.773996,-0.140851,-11.340694,150.488268,37.925404,-11.365862,0.000000,0.000000,
213058170,150.215685,21.365157,3,0.710938,0.085571,-0.066101,-0.694885,0.280000,-0.530000,-1.640000,-0.159007,-0.236949,-11.520304,150.833042,37.795480,-11.478921,0.000000,0.000000,
213067820,150.977708,21.365157,3,0.696106,0.087830,-0.064941,-0.709595,0.320000,-0.910000,-1.660000,-0.534213,-0.243725,-11.629742,151.206474,37.693668,-11.589330,0.000000,0.000000,
213078825,150.984544,21.374438,3,0.680969,0.090210,-0.063843,-0.723938,0.000000,-0.380000,-1.660000,-0.008959,0.082892,-11.500351,151.606396,37.551126,-11.524193,0.000000,0.000000,
213088334,152.121111,21.365157,3,0.665588,0.092529,-0.062683,-0.737915,0.510000,-0.360000,-1.600000,-0.042222,-0.419294,-11.468649,151.995910,37.479308,-11.483532,0.000000,0.000000,
213099274,152.593217,21.360517,3,0.650024,0.094788,-0.061462,-0.751465,0.280000,-0.950000,-1.530000,-0.611890,-0.087029,-11.512604,152.443504,37.396410,-11.504814,0.000000,0.000000,
213108725,152.028795,21.369798,3,0.634155,0.097046,-0.060181,-0.764709,0.300000,-0.010000,-1.510000,0.277546,-0.238834,-11.299726,152.769869,37.259631,-11.354679,0.000000,0.000000,
213118382,153.165514,21.360517,3,0.618103,0.099243,-0.058838,-0.777588,0.590000,-0.280000,-1.490000,-0.055881,-0.463466,-11.359556,153.154476,37.178485,-11.358249,0.000000,0.000000,
213129225,153.454546,21.365157,3,0.601746,0.101379,-0.057373,-0.790161,0.320000,-0.720000,-1.490000,-0.410259,-0.065092,-11.436463,153.576140,37.076106,-11.415505,0.000000,0.000000,
213138591,153.644975,21.365157,3,0.585205,0.103455,-0.055847,-0.802307,0.510000,-0.050000,-1.470000,0.150578,-0.418621,-11.290447,153.927313,36.975379,-11.323957,0.000000,0.000000,
213148397,154.308092,21.360517,3,0.568481,0.105408,-0.054260,-0.814087,0.570000,-0.780000,-1.470000,-0.554879,-0.209723,-11.458172,154.313696,36.890455,-11.422209,0.000000,0.000000,
213159222,154.499071,21.360517,3,0.551575,0.107239,-0.052612,-0.825562,0.400000,-0.760000,-1.510000,-0.473316,-0.022131,-11.469243,154.724227,36.779649,-11.456640,0.000000,0.000000,
213168678,154.978624,21.365157,3,0.534424,0.109009,-0.050903,-0.836609,0.630000,-0.110000,-1.450000,-0.000556,-0.477081,-11.312563,155.087802,36.691111,-11.351168,0.000000,0.000000,
213178509,154.788164,21.365157,3,0.517029,0.110657,-0.049133,-0.847351,0.680000,-0.210000,-1.430000,-0.134902,-0.465563,-11.318503,155.428801,36.558258,-11.327256,0.000000,0.000000,
213189280,154.788164,21.365157,3,0.499512,0.112183,-0.047302,-0.857727,0.440000,-0.670000,-1.370000,-0.443641,-0.005858,-11.322151,155.780909,36.390221,-11.323519,0.000000,0.000000,
213198716,155.832811,21.360517,3,0.481812,0.113586,-0.045471,-0.867676,0.610000,-0.300000,-1.410000,-0.212025,-0.314965,-11.319616,156.127106,36.287162,-11.320662,0.000000,0.000000,
213208392,156.030626,21.369798,3,0.463928,0.114807,-0.043579,-0.877319,0.670000,-0.530000,-1.410000,-0.440711,-0.205073,-11.375856,156.471517,36.170143,-11.361067,0.000000,0.000000,
213219423,155.931993,21.365157,3,0.445862,0.115967,-0.041626,-0.886597,0.590000,-0.470000,-1.360000,-0.371092,-0.153310,-11.297623,156.835300,36.006737,-11.314623,0.000000,0.000000,
213229052,156.792558,21.369798,3,0.427673,0.117004,-0.039673,-0.895447,0.610000,-0.170000,-1.340000,-0.166760,-0.330444,-11.233122,157.178754,35.895506,-11.254960,0.000000,0.000000,
213239840,156.601549,21.369798,3,0.409363,0.117859,-0.037720,-0.903931,0.440000,-0.420000,-1.370000,-0.246708,-0.011269,-11.275860,157.528365,35.732249,-11.270260,0.000000,0.000000,
213249313,157.554552,21.369798,3,0.390991,0.118652,-0.035767,-0.912048,0.860000,-0.280000,-1.340000,-0.432069,-0.390899,-11.303508,157.868026,35.627059,-11.294599,0.000000,0.000000,
213258905,157.272722,21.374438,3,0.372498,0.119263,-0.033813,-0.919739,0.670000,-0.150000,-1.280000,-0.251148,-0.320330,-11.193968,158.171157,35.476737,-11.220932,0.000000,0.000000,
213269913,158.127122,21.369798,3,0.353943,0.119751,-0.031860,-0.927002,0.470000,-0.490000,-1.360000,-0.320332,0.092570,-11.282482,158.558180,35.349394,-11.265990,0.000000,0.000000,
213279352,158.599992,21.365157,3,0.335388,0.120178,-0.029907,-0.933899,0.630000,-0.400000,-1.240000,-0.407356,-0.062928,-11.184247,158.894026,35.246879,-11.206150,0.000000,0.000000,
213289100,158.981584,21.365157,3,0.316650,0.120422,-0.028015,-0.940430,0.300000,-0.320000,-1.300000,-0.095263,0.105688,-11.162052,159.242686,35.144384,-11.173868,0.000000,0.000000,
213299960,159.079729,21.369798,3,0.297913,0.120605,-0.026062,-0.946594,0.380000,-0.260000,-1.260000,-0.131072,0.021882,-11.130377,159.613266,35.011767,-11.142031,0.000000,0.000000,
213309442,160.124834,21.365157,3,0.279053,0.120667,-0.024170,-0.952332,0.240000,-0.530000,-1.200000,-0.182082,0.342404,-11.072411,159.977513,34.943808,-11.091065,0.000000,0.000000,
213319122,159.652391,21.369798,3,0.260132,0.120667,-0.022217,-0.957764,0.380000,-0.490000,-1.260000,-0.249479,0.256438,-11.161388,160.294445,34.812331,-11.142545,0.000000,0.000000,
213330203,160.124834,21.365157,3,0.241150,0.120544,-0.020264,-0.962769,0.280000,-0.240000,-1.220000,-0.053801,0.101518,-11.071926,160.668665,34.677418,-11.090848,0.000000,0.000000,
213339619,160.881273,21.355877,3,0.222168,0.120361,-0.018311,-0.967346,0.440000,-0.470000,-1.240000,-0.281907,0.254377,-11.143735,161.008309,34.587863,-11.129564,0.000000,0.000000,
213349466,160.224046,21.369798,3,0.203247,0.120178,-0.016418,-0.971619,0.010000,-0.240000,-1.220000,0.193066,0.236764,-11.003352,161.298183,34.422969,-11.037170,0.000000,0.000000,
213360341,161.367937,21.369798,3,0.184265,0.119873,-0.014465,-0.975403,0.210000,-0.400000,-1.220000,-0.039302,0.316232,-11.067076,161.676344,34.307646,-11.059063,0.000000,0.000000,
213369851,161.078661,21.365157,3,0.165283,0.119507,-0.012573,-0.978882,0.300000,-0.240000,-1.180000,-0.065464,0.139197,-11.032143,161.963827,34.159473,-11.039356,0.000000,0.000000,
213379401,161.170030,21.360517,3,0.146240,0.119141,-0.010620,-0.981995,-0.070000,-0.030000,-1.160000,0.335740,0.060355,-10.911785,162.238772,33.998020,-10.945968,0.000000,0.000000,
213391437,161.940721,21.369798,3,0.127197,0.118774,-0.008728,-0.984680,-0.090000,0.050000,-1.180000,0.399206,-0.091842,-10.926915,162.628080,33.845059,-10.932020,0.000000,0.000000,
213400324,162.511980,21.369798,3,0.108154,0.118347,-0.006775,-0.987061,0.320000,-0.780000,-1.130000,-0.196728,0.706019,-11.006933,162.920976,33.738737,-10.986860,0.000000,0.000000,
213411848,162.603868,21.365157,3,0.089172,0.117920,-0.004883,-0.989014,-0.030000,-0.210000,-1.160000,0.286931,0.137209,-10.925615,163.288713,33.589891,-10.942026,0.000000,0.000000,
213420718,163.458696,21.360517,3,0.070190,0.117432,-0.002930,-0.990601,0.070000,-0.450000,-1.130000,0.140692,0.440349,-10.923973,163.597134,33.505394,-10.928810,0.000000,0.000000,
213430218,164.313585,21.355877,3,0.051208,0.116943,-0.000977,-0.991821,0.010000,-0.320000,-1.160000,0.229542,0.322851,-10.932526,163.960819,33.453330,-10.931530,0.000000,0.000000,
213440859,163.847276,21.369798,3,0.032227,0.116516,0.000977,-0.992676,-0.340000,-0.070000,-1.130000,0.595906,0.098166,-10.825202,164.308916,33.329927,-10.853692,0.000000,0.000000,
213450297,164.031602,21.360517,3,0.013306,0.116028,0.002930,-0.993164,0.380000,-0.550000,-1.130000,-0.124196,0.556886,-10.989725,164.605232,33.206123,-10.953275,0.000000,0.000000,
213459979,164.603471,21.360517,3,-0.005493,0.115540,0.004883,-0.993286,-0.150000,-0.570000,-1.090000,0.401155,0.584873,-10.822425,164.926118,33.101213,-10.857486,0.000000,0.000000,
213470950,164.992113,21.369798,3,-0.024292,0.115112,0.006897,-0.993042,0.010000,-0.110000,-1.090000,0.252469,0.127874,-10.859990,165.292842,32.986811,-10.859319,0.000000,0.000000,
213480213,165.373399,21.369798,3,-0.042969,0.114624,0.008850,-0.992432,0.280000,-0.450000,-1.090000,0.017373,0.489571,-10.910679,165.603086,32.891551,-10.896917,0.000000,0.000000,
213490088,165.274644,21.365157,3,-0.061646,0.114136,0.010864,-0.991516,-0.530000,-0.470000,-1.050000,0.812678,0.416416,-10.682701,165.906374,32.762420,-10.740100,0.000000,0.000000,
213500833,166.136552,21.369798,3,-0.080200,0.113708,0.012817,-0.990173,-0.110000,-0.320000,-1.030000,0.396601,0.311637,-10.759428,166.272513,32.663357,-10.754249,0.000000,0.000000,
213510345,166.227922,21.365157,3,-0.098633,0.113342,0.014893,-0.988525,0.090000,-0.630000,-1.030000,0.278477,0.648716,-10.794319,166.579863,32.557452,-10.783582,0.000000,0.000000,
213520041,166.709062,21.369798,3,-0.117065,0.112915,0.016907,-0.986572,-0.220000,-0.650000,-1.070000,0.605386,0.592394,-10.759109,166.903296,32.462429,-10.765666,0.000000,0.000000,
213531014,166.991136,21.365157,3,-0.135315,0.112549,0.019043,-0.984192,0.150000,-0.220000,-1.050000,0.158393,0.265267,-10.844857,167.264471,32.349763,-10.823638,0.000000,0.000000,
213540442,167.274278,21.360517,3,-0.153564,0.112122,0.021118,-0.981506,0.320000,-0.380000,-1.010000,0.050371,0.469363,-10.827197,167.569611,32.248392,-10.826244,0.000000,0.000000,
213550269,167.373552,21.365157,3,-0.171631,0.111755,0.023254,-0.978516,-0.130000,-0.510000,-1.010000,0.523335,0.442390,-10.717508,167.873464,32.128959,-10.746643,0.000000,0.000000,
213560937,167.571062,21.374438,3,-0.189636,0.111389,0.025391,-0.975159,0.130000,-0.320000,-0.970000,0.228304,0.359397,-10.746135,168.196257,31.992582,-10.746271,0.000000,0.000000,
213570532,168.136308,21.365157,3,-0.207458,0.110962,0.027527,-0.971558,0.210000,-0.510000,-1.030000,0.253893,0.563447,-10.800477,168.498890,31.884612,-10.785952,0.000000,0.000000,
213581518,168.425798,21.369798,3,-0.225159,0.110535,0.029724,-0.967590,0.010000,-0.610000,-0.950000,0.473212,0.557938,-10.657366,168.843855,31.762229,-10.691820,0.000000,0.000000,
213590945,168.800371,21.360517,3,-0.242798,0.110107,0.031921,-0.963257,-0.070000,-0.340000,-0.950000,0.441549,0.276195,-10.667692,169.140020,31.658524,-10.674157,0.000000,0.000000,
213600531,169.281114,21.365157,3,-0.260254,0.109619,0.034180,-0.958679,0.320000,-0.210000,-0.930000,0.051224,0.349498,-10.738535,169.452029,31.565756,-10.721285,0.000000,0.000000,
213611595,169.670427,21.374438,3,-0.277588,0.109070,0.036499,-0.953796,0.360000,-0.610000,-0.910000,0.233093,0.720733,-10.672598,169.814602,31.463359,-10.685644,0.000000,0.000000,
213620981,170.326707,21.360517,3,-0.294800,0.108521,0.038818,-0.948608,-0.050000,-0.300000,-0.900000,0.418745,0.232524,-10.624194,170.142247,31.400725,-10.640660,0.000000,0.000000,
213630718,169.571123,21.369798,3,-0.311829,0.107910,0.041199,-0.943115,0.400000,-0.450000,-0.900000,0.157147,0.608274,-10.682677,170.410953,31.255552,-10.671419,0.000000,0.000000,
213641763,170.517961,21.360517,3,-0.328796,0.107239,0.043518,-0.937317,0.210000,-0.380000,-0.950000,0.289485,0.438932,-10.705416,170.762368,31.145020,-10.696307,0.000000,0.000000,
213651094,170.998766,21.365157,3,-0.345520,0.106628,0.045837,-0.931213,0.240000,-0.590000,-0.900000,0.414535,0.616846,-10.623549,171.067662,31.063031,-10.643044,0.000000,0.000000,
213660781,171.190050,21.365157,3,-0.362122,0.105957,0.048218,-0.924866,0.440000,-0.530000,-0.860000,0.244565,0.697190,-10.622736,171.375900,30.968947,-10.628177,0.000000,0.000000,
213671861,171.762346,21.365157,3,-0.378540,0.105225,0.050598,-0.918213,0.320000,-0.380000,-0.860000,0.243861,0.501393,-10.616325,171.743122,30.879098,-10.619501,0.000000,0.000000,
213681269,172.045061,21.360517,3,-0.394836,0.104553,0.052979,-0.911255,0.000000,-0.320000,-0.880000,0.439694,0.228954,-10.595744,172.052502,30.801275,-10.602110,0.000000,0.000000,
213691008,171.670366,21.369798,3,-0.410889,0.103760,0.055359,-0.904053,0.420000,-0.440000,-0.840000,0.255424,0.620324,-10.594327,172.327527,30.670555,-10.596413,0.000000,0.000000,
213701769,172.716722,21.365157,3,-0.426819,0.102905,0.057800,-0.896606,0.090000,-0.010000,-0.840000,0.157345,0.089934,-10.627878,172.681867,30.584197,-10.619447,0.000000,0.000000,
213711346,172.624773,21.369798,3,-0.442566,0.101990,0.060242,-0.888855,0.220000,-0.440000,-0.840000,0.415704,0.453607,-10.561214,172.970634,30.478940,-10.576817,0.000000,0.000000,
213721029,172.617387,21.360517,3,-0.458069,0.101074,0.062744,-0.880920,0.300000,-0.300000,-0.840000,0.269247,0.431651,-10.588545,173.242670,30.350957,-10.585403,0.000000,0.000000,
213732112,173.572404,21.360517,3,-0.473389,0.100037,0.065186,-0.872742,0.000000,-0.220000,-0.820000,0.378481,0.131494,-10.548818,173.599511,30.257739,-10.558621,0.000000,0.000000,
213741584,173.480424,21.365157,3,-0.488464,0.099060,0.067627,-0.864319,0.030000,-0.240000,-0.840000,0.387739,0.167386,-10.568701,173.878011,30.149010,-10.566000,0.000000,0.000000,
213751337,173.953477,21.360517,3,-0.503296,0.097961,0.070007,-0.855652,0.170000,-0.150000,-0.820000,0.244415,0.237071,-10.583664,174.176379,30.051228,-10.578931,0.000000,0.000000,
213761999,174.251512,21.374438,3,-0.517944,0.096863,0.072449,-0.846863,-0.150000,-0.190000,-0.820000,0.431882,-0.028902,-10.535671,174.500997,29.944295,-10.547262,0.000000,0.000000,
213771593,174.335619,21.360517,3,-0.532288,0.095703,0.074768,-0.837769,0.010000,-0.210000,-0.820000,0.382884,0.118317,-10.546476,174.777209,29.831161,-10.546687,0.000000,0.000000,
213782422,175.007982,21.365157,3,-0.546509,0.094482,0.077087,-0.828552,0.130000,-0.420000,-0.800000,0.523913,0.296885,-10.488473,175.114417,29.734193,-10.504072,0.000000,0.000000,
213791771,174.915971,21.369798,3,-0.560425,0.093262,0.079346,-0.819092,0.260000,-0.300000,-0.780000,0.368799,0.364382,-10.506648,175.379233,29.621597,-10.505958,0.000000,0.000000,
213801472,175.771288,21.365157,3,-0.574158,0.092041,0.081543,-0.809448,-0.130000,-0.340000,-0.780000,0.544226,0.006619,-10.474541,175.691180,29.548240,-10.482959,0.000000,0.000000,
213812561,175.771288,21.365157,3,-0.587646,0.090759,0.083679,-0.799622,0.360000,-0.380000,-0.760000,0.439620,0.470470,-10.458963,176.023327,29.438014,-10.465393,0.000000,0.000000,
213822031,176.160875,21.374438,3,-0.601013,0.089478,0.085815,-0.789551,-0.110000,-0.320000,-0.760000,0.516599,-0.003768,-10.455229,176.310448,29.348966,-10.457952,0.000000,0.000000,
213831708,176.061510,21.369798,3,-0.614136,0.088196,0.087952,-0.779297,-0.030000,-0.340000,-0.760000,0.521358,0.064038,-10.454554,176.578040,29.229842,-10.455465,0.000000,0.000000,
213842484,176.252367,21.369798,3,-0.627014,0.086914,0.090088,-0.768921,0.150000,-0.130000,-0.700000,0.271372,0.191591,-10.444740,176.871567,29.093849,-10.447614,0.000000,0.000000,
213851910,177.100969,21.355877,3,-0.639648,0.085632,0.092163,-0.758301,-0.220000,0.070000,-0.700000,0.147879,-0.213860,-10.491934,177.160024,29.011526,-10.480058,0.000000,0.000000,
213861685,176.916917,21.365157,3,-0.652100,0.084290,0.094238,-0.747498,0.340000,-0.470000,-0.700000,0.578017,0.419909,-10.364488,177.427572,28.892703,-10.395455,0.000000,0.000000,
213872711,177.398027,21.369798,3,-0.664307,0.083008,0.096313,-0.736572,0.090000,-0.150000,-0.700000,0.310056,0.132105,-10.435653,177.743616,28.775529,-10.424882,0.000000,0.000000,
213882218,177.963823,21.360517,3,-0.676208,0.081665,0.098328,-0.725525,-0.010000,-0.150000,-0.700000,0.322078,0.024503,-10.439318,178.030816,28.692212,-10.435450,0.000000,0.000000,
213891917,177.971178,21.369798,3,-0.687927,0.080322,0.100281,-0.714294,0.260000,-0.340000,-0.720000,0.507471,0.302647,-10.405381,178.304798,28.586991,-10.413438,0.000000,0.000000,
213902818,178.063219,21.365157,3,-0.699402,0.078918,0.102173,-0.703003,-0.210000,0.070000,-0.720000,0.115746,-0.183032,-10.517298,178.600331,28.454993,-10.489469,0.000000,0.000000,
213912220,178.444994,21.365157,3,-0.710571,0.077576,0.104004,-0.691528,0.000000,-0.050000,-0.680000,0.222103,0.028402,-10.444032,178.857459,28.345575,-10.456207,0.000000,0.000000,
213922110,178.925645,21.369798,3,-0.721558,0.076111,0.105835,-0.679932,0.220000,-0.110000,-0.700000,0.304798,0.238539,-10.438550,179.141649,28.247249,-10.443281,0.000000,0.000000,
213933113,179.682420,21.360517,3,-0.732300,0.074707,0.107544,-0.668274,-0.240000,0.070000,-0.630000,0.077521,-0.205281,-10.445303,179.486448,28.171246,-10.444761,0.000000,0.000000,
213942554,179.400011,21.365157,3,-0.742798,0.073242,0.109192,-0.656494,0.420000,-0.210000,-0.680000,0.426869,0.420053,-10.373862,179.746416,28.067070,-10.392860,0.000000,0.000000,
213953369,179.499406,21.369798,3,-0.752991,0.071716,0.110779,-0.644653,0.170000,-0.170000,-0.630000,0.350095,0.171777,-10.353867,180.033532,27.937266,-10.364315,0.000000,0.000000,
213962821,180.354601,21.365157,3,-0.763062,0.070190,0.112305,-0.632629,-0.010000,-0.010000,-0.650000,0.179882,0.009974,-10.428667,180.317700,27.861943,-10.411424,0.000000,0.000000,
213972415,181.020464,21.360517,3,-0.772827,0.068665,0.113831,-0.620483,0.420000,-0.240000,-0.650000,0.489722,0.387637,-10.333718,180.629508,27.813528,-10.354539,0.000000,0.000000,
213983499,181.309770,21.365157,3,-0.782410,0.067017,0.115234,-0.608337,-0.190000,0.090000,-0.610000,0.034141,-0.132369,-10.426293,180.980714,27.746951,-10.407067,0.000000,0.000000,
213992743,181.409196,21.369798,3,-0.791748,0.065430,0.116577,-0.596069,-0.150000,0.090000,-0.630000,0.050570,-0.093981,-10.443323,181.264206,27.681441,-10.433608,0.000000,0.000000,
214002618,181.692186,21.365157,3,-0.800842,0.063782,0.117859,-0.583740,0.450000,-0.280000,-0.650000,0.559651,0.363882,-10.310114,181.564444,27.610462,-10.343204,0.000000,0.000000,
214014451,181.699571,21.374438,3,-0.809692,0.062134,0.119080,-0.571289,0.260000,-0.090000,-0.610000,0.341573,0.160169,-10.337188,181.899097,27.497867,-10.338800,0.000000,0.000000,
214023329,181.791093,21.369798,3,-0.818298,0.060425,0.120239,-0.558777,0.130000,0.000000,-0.630000,0.220661,0.147445,-10.392832,182.135884,27.397702,-10.378354,0.000000,0.000000,
214032766,181.974687,21.360517,3,-0.826721,0.058716,0.121338,-0.546204,0.210000,-0.220000,-0.570000,0.429820,0.132681,-10.274882,182.383665,27.289099,-10.302608,0.000000,0.000000,
214044573,182.365007,21.369798,3,-0.834900,0.056946,0.122437,-0.533569,0.240000,-0.260000,-0.570000,0.486929,0.053090,-10.252858,182.703958,27.166670,-10.266189,0.000000,0.000000,
214053473,182.930559,21.360517,3,-0.842834,0.055176,0.123474,-0.520874,0.240000,-0.030000,-0.610000,0.294559,0.227028,-10.341978,182.959860,27.091063,-10.321670,0.000000,0.000000,
214063062,182.739061,21.360517,3,-0.850586,0.053406,0.124451,-0.508118,0.190000,-0.190000,-0.610000,0.410921,0.100271,-10.315514,183.205030,26.976210,-10.317163,0.000000,0.000000,
214073903,183.595567,21.355877,3,-0.858093,0.051575,0.125366,-0.495300,0.240000,-0.070000,-0.530000,0.321893,0.195177,-10.254220,183.521884,26.893129,-10.271086,0.000000,0.000000,
214083337,183.794450,21.365157,3,-0.865356,0.049744,0.126282,-0.482483,0.240000,-0.210000,-0.570000,0.452730,0.109580,-10.263565,183.792592,26.816020,-10.265580,0.000000,0.000000,
214092914,183.510851,21.369798,3,-0.872375,0.047852,0.127136,-0.469604,0.300000,-0.300000,-0.530000,0.550518,0.100378,-10.195842,184.030924,26.698080,-10.214528,0.000000,0.000000,
214103983,184.083818,21.369798,3,-0.879211,0.045959,0.127991,-0.456604,0.240000,-0.070000,-0.510000,0.332549,0.172691,-10.233482,184.329203,26.588613,-10.228403,0.000000,0.000000,
214113335,184.367418,21.365157,3,-0.885803,0.044006,0.128723,-0.443665,0.320000,-0.190000,-0.530000,0.476772,0.159720,-10.214941,184.579860,26.495851,-10.218548,0.000000,0.000000,
214124297,184.940446,21.365157,3,-0.892212,0.042053,0.129517,-0.430603,0.260000,-0.360000,-0.550000,0.581927,-0.007753,-10.213497,184.892786,26.409848,-10.214851,0.000000,0.000000,
214133531,185.322984,21.365157,3,-0.898376,0.040039,0.130310,-0.417480,0.320000,-0.090000,-0.510000,0.406997,0.208499,-10.212986,185.163771,26.346692,-10.213486,0.000000,0.000000,
214143273,185.039873,21.369798,3,-0.904358,0.038086,0.131042,-0.404419,0.260000,-0.440000,-0.490000,0.619349,-0.085627,-10.145185,185.412037,26.238931,-10.163486,0.000000,0.000000,
214153986,185.414018,21.360517,3,-0.910095,0.036072,0.131775,-0.391296,0.280000,-0.360000,-0.490000,0.575875,-0.028241,-10.155838,185.692679,26.130272,-10.157888,0.000000,0.000000,
214163587,185.896593,21.365157,3,-0.915588,0.034058,0.132507,-0.378113,0.340000,-0.210000,-0.510000,0.516325,0.109810,-10.178294,185.956138,26.047270,-10.172826,0.000000,0.000000,
214173291,185.429796,21.379078,3,-0.920898,0.032104,0.133179,-0.364990,0.400000,-0.260000,-0.510000,0.592611,0.102606,-10.158147,186.174762,25.910797,-10.162081,0.000000,0.000000,
214184377,186.087602,21.365157,3,-0.925964,0.030090,0.133850,-0.351807,0.210000,-0.220000,-0.510000,0.429621,-0.005203,-10.208898,186.455802,25.791375,-10.196353,0.000000,0.000000,
214193725,186.851244,21.365157,3,-0.930847,0.028076,0.134521,-0.338623,0.170000,-0.340000,-0.470000,0.472291,-0.133646,-10.161742,186.721777,25.725004,-10.171016,0.000000,0.000000,
214203576,186.950700,21.369798,3,-0.935486,0.026123,0.135132,-0.325378,0.490000,-0.300000,-0.450000,0.671954,0.083488,-10.077179,186.989352,25.642217,-10.102322,0.000000,0.000000,
214214308,186.851244,21.365157,3,-0.940002,0.024109,0.135742,-0.312134,0.320000,-0.190000,-0.450000,0.483710,0.053200,-10.132383,187.255120,25.523548,-10.124328,0.000000,0.000000,
214223803,187.134904,21.360517,3,-0.944214,0.022095,0.136353,-0.298889,0.420000,-0.220000,-0.450000,0.582507,0.073218,-10.104983,187.489316,25.418920,-10.110167,0.000000,0.000000,
214233641,187.998613,21.365157,3,-0.948303,0.020142,0.137024,-0.285583,0.590000,-0.210000,-0.440000,0.709203,0.166195,-10.056686,187.771476,25.356652,-10.071016,0.000000,0.000000,
214244698,187.524919,21.369798,3,-0.952148,0.018188,0.137634,-0.272339,0.440000,-0.150000,-0.420000,0.552028,0.116819,-10.073467,188.035444,25.227538,-10.072810,0.000000,0.000000,
214254124,187.807024,21.365157,3,-0.955750,0.016235,0.138306,-0.259033,0.380000,-0.130000,-0.440000,0.500091,0.089063,-10.112120,188.258159,25.115672,-10.101587,0.000000,0.000000,
214263872,188.380754,21.365157,3,-0.959229,0.014221,0.138977,-0.245728,0.440000,-0.130000,-0.400000,0.547610,0.107586,-10.058384,188.510353,25.026461,-10.069960,0.000000,0.000000,
214274917,188.289690,21.369798,3,-0.962463,0.012268,0.139648,-0.232483,0.340000,0.000000,-0.420000,0.408840,0.163230,-10.118759,188.772022,24.898837,-10.105683,0.000000,0.000000,
214284314,188.855028,21.360517,3,-0.965454,0.010315,0.140320,-0.219238,0.400000,-0.150000,-0.380000,0.517227,0.043745,-10.043310,189.010873,24.810493,-10.060023,0.000000,0.000000,
214295096,188.771349,21.374438,3,-0.968323,0.008240,0.140991,-0.206055,0.440000,-0.070000,-0.400000,0.528340,0.125139,-10.060031,189.262451,24.684754,-10.060029,0.000000,0.000000,
214304401,189.336717,21.365157,3,-0.970886,0.006226,0.141724,-0.192932,0.280000,0.050000,-0.400000,0.346157,0.166131,-10.113877,189.496460,24.596007,-10.099449,0.000000,0.000000,
214314020,189.054033,21.369798,3,-0.973328,0.004211,0.142456,-0.179810,0.420000,0.000000,-0.420000,0.495736,0.164249,-10.084371,189.704281,24.467116,-10.088411,0.000000,0.000000,
214325050,190.002641,21.360517,3,-0.975525,0.002136,0.143127,-0.166748,0.340000,-0.130000,-0.400000,0.464300,-0.002656,-10.083300,189.992639,24.377345,-10.084670,0.000000,0.000000,
214334518,190.483842,21.365157,3,-0.977600,0.000061,0.143860,-0.153748,0.340000,0.050000,-0.420000,0.421710,0.166029,-10.112655,190.254446,24.317128,-10.105156,0.000000,0.000000,
214344252,190.102159,21.365157,3,-0.979431,-0.002136,0.144470,-0.140869,0.320000,-0.170000,-0.420000,0.460840,-0.064102,-10.104636,190.480928,24.207794,-10.104775,0.000000,0.000000,
214354977,190.583360,21.369798,3,-0.981079,-0.004333,0.145142,-0.128052,0.220000,-0.110000,-0.400000,0.347620,-0.033430,-10.119656,190.746530,24.106634,-10.115668,0.000000,0.000000,
214364550,190.774461,21.369798,3,-0.982544,-0.006592,0.145813,-0.115356,0.450000,0.000000,-0.340000,0.518474,0.114868,-9.992664,190.978638,24.013021,-10.025623,0.000000,0.000000,
214374224,191.157762,21.369798,3,-0.983826,-0.008850,0.146484,-0.102722,0.380000,-0.220000,-0.360000,0.507611,-0.125984,-10.032730,191.221926,23.928868,-10.030825,0.000000,0.000000,
214385319,190.966112,21.369798,3,-0.984924,-0.011169,0.147095,-0.090149,0.090000,-0.220000,-0.360000,0.227162,-0.187695,-10.113903,191.470417,23.798297,-10.091643,0.000000,0.000000,
214394799,191.058244,21.365157,3,-0.985901,-0.013550,0.147705,-0.077637,0.050000,0.000000,-0.360000,0.155098,0.033079,-10.129230,191.669171,23.672432,-10.119159,0.000000,0.000000,
214404541,191.722734,21.360517,3,-0.986694,-0.015930,0.148254,-0.065125,0.450000,-0.220000,-0.340000,0.562046,-0.135101,-9.998206,191.902744,23.578893,-10.030615,0.000000,0.000000,
214415521,191.822252,21.365157,3,-0.987305,-0.018311,0.148804,-0.052734,0.110000,-0.150000,-0.340000,0.218836,-0.120189,-10.096263,192.155876,23.462265,-10.078673,0.000000,0.000000,
214424859,192.297197,21.360517,3,-0.987732,-0.020691,0.149292,-0.040344,0.070000,-0.190000,-0.340000,0.190264,-0.162804,-10.112206,192.383575,23.378056,-10.103221,0.000000,0.000000,
214434583,192.778520,21.365157,3,-0.988037,-0.023071,0.149780,-0.028076,0.450000,-0.150000,-0.320000,0.535643,-0.105943,-9.976082,192.635699,23.309506,-10.010148,0.000000,0.000000,
214445621,192.396715,21.365157,3,-0.988220,-0.025513,0.150146,-0.015808,0.280000,-0.110000,-0.300000,0.367201,-0.078627,-10.010050,192.877081,23.181827,-10.010077,0.000000,0.000000,
214455103,192.970201,21.365157,3,-0.988220,-0.028015,0.150513,-0.003601,0.380000,-0.170000,-0.340000,0.473228,-0.149076,-10.017356,193.102404,23.093580,-10.015406,0.000000,0.000000,
214465863,193.161882,21.365157,3,-0.988037,-0.030457,0.150818,0.008606,0.470000,-0.110000,-0.320000,0.549740,-0.098342,-9.973735,193.354125,22.990541,-9.984900,0.000000,0.000000,
214475331,193.069719,21.369798,3,-0.987732,-0.032898,0.151123,0.020752,0.190000,-0.090000,-0.280000,0.264435,-0.074823,-10.014142,193.553130,22.875120,-10.006307,0.000000,0.000000,
214484898,193.252977,21.360517,3,-0.987305,-0.035339,0.151367,0.032776,0.320000,-0.190000,-0.300000,0.391998,-0.194472,-10.007136,193.752313,22.757728,-10.006914,0.000000,0.000000,
214495723,193.260881,21.369798,3,-0.986694,-0.037781,0.151611,0.044800,0.400000,-0.050000,-0.260000,0.453591,-0.069981,-9.931955,193.966630,22.614842,-9.952040,0.000000,0.000000,
214505062,194.026079,21.369798,3,-0.985962,-0.040222,0.151917,0.056702,0.130000,-0.110000,-0.260000,0.194128,-0.102727,-10.022404,194.181196,22.525519,-10.003550,0.000000,0.000000,
214514685,193.926042,21.365157,3,-0.985046,-0.042664,0.152100,0.068542,0.550000,-0.240000,-0.260000,0.569531,-0.293873,-9.909106,194.381191,22.411802,-9.934412,0.000000,0.000000,
214525686,194.125627,21.374438,3,-0.984009,-0.045166,0.152344,0.080322,0.420000,-0.130000,-0.260000,0.464461,-0.183213,-9.941155,194.610792,22.284095,-9.939348,0.000000,0.000000,
214535313,194.216753,21.369798,3,-0.982849,-0.047668,0.152588,0.092041,0.280000,-0.240000,-0.210000,0.291194,-0.272929,-9.946397,194.799635,22.159872,-9.944508,0.000000,0.000000,
214545116,195.074724,21.365157,3,-0.981506,-0.050110,0.152771,0.103699,0.550000,-0.240000,-0.240000,0.548209,-0.335433,-9.893733,195.033991,22.082705,-9.907338,0.000000,0.000000,
214555802,194.890916,21.374438,3,-0.980103,-0.052612,0.152893,0.115295,0.110000,-0.210000,-0.260000,0.139293,-0.205616,-10.045840,195.260232,21.965093,-10.008729,0.000000,0.000000,
214565355,195.647813,21.365157,3,-0.978516,-0.055054,0.153076,0.126831,0.210000,-0.300000,-0.260000,0.205628,-0.319909,-10.028380,195.494416,21.897290,-10.023114,0.000000,0.000000,
214575240,195.555620,21.369798,3,-0.976807,-0.057495,0.153198,0.138245,0.420000,-0.110000,-0.280000,0.454333,-0.202419,-9.964612,195.714301,21.803196,-9.980288,0.000000,0.000000,
214586338,196.030229,21.365157,3,-0.974915,-0.059937,0.153320,0.149658,0.280000,-0.050000,-0.210000,0.312448,-0.115751,-9.927206,195.975893,21.715740,-9.941429,0.000000,0.000000,
214595800,195.839555,21.365157,3,-0.972961,-0.062378,0.153442,0.160950,0.320000,-0.170000,-0.240000,0.314620,-0.245514,-9.964155,196.172186,21.611575,-9.958065,0.000000,0.000000,
214605357,196.221971,21.365157,3,-0.970886,-0.064819,0.153503,0.172241,0.510000,-0.320000,-0.210000,0.426191,-0.462581,-9.918003,196.381461,21.520383,-9.928738,0.000000,0.000000,
214616131,196.221971,21.365157,3,-0.968628,-0.067200,0.153625,0.183411,0.210000,-0.070000,-0.220000,0.240926,-0.121741,-9.961511,196.602535,21.401595,-9.952729,0.000000,0.000000,
214625605,196.986894,21.365157,3,-0.966309,-0.069580,0.153687,0.194519,0.320000,-0.090000,-0.170000,0.309273,-0.195605,-9.887225,196.829457,21.335722,-9.904777,0.000000,0.000000,
214635528,197.086443,21.369798,3,-0.963806,-0.071960,0.153748,0.205566,0.470000,-0.300000,-0.150000,0.349709,-0.459404,-9.880117,197.057124,21.256186,-9.886725,0.000000,0.000000,
214647530,196.229875,21.374438,3,-0.961182,-0.074341,0.153809,0.216553,0.320000,-0.260000,-0.190000,0.242190,-0.437601,-9.944357,197.258496,21.077330,-9.928914,0.000000,0.000000,
214656382,197.178636,21.365157,3,-0.958496,-0.076721,0.153809,0.227417,0.400000,-0.170000,-0.150000,0.328026,-0.320136,-9.869664,197.439565,20.984187,-9.885540,0.000000,0.000000,
214667811,197.461565,21.360517,3,-0.955688,-0.078979,0.153870,0.238220,0.470000,-0.210000,-0.190000,0.371040,-0.478410,-9.906759,197.680157,20.872563,-9.901074,0.000000,0.000000,
214676518,197.752367,21.365157,3,-0.952759,-0.081299,0.153870,0.248962,0.240000,-0.240000,-0.170000,0.154020,-0.317498,-9.956558,197.866147,20.791100,-9.941691,0.000000,0.000000,
214685970,198.326646,21.365157,3,-0.949707,-0.083618,0.153931,0.259583,0.380000,-0.210000,-0.170000,0.269944,-0.362577,-9.916592,198.091694,20.730618,-9.923318,0.000000,0.000000,
214696908,198.334550,21.374438,3,-0.946533,-0.085815,0.153931,0.270142,0.380000,-0.130000,-0.150000,0.298291,-0.296538,-9.876212,198.333405,20.640042,-9.888834,0.000000,0.000000,
214706141,198.134874,21.365157,3,-0.943298,-0.088074,0.153992,0.280640,0.300000,-0.210000,-0.130000,0.180918,-0.327463,-9.897605,198.510841,20.534292,-9.895255,0.000000,0.000000,
214715992,199.383104,21.369798,3,-0.939941,-0.090271,0.153992,0.290955,0.380000,-0.280000,-0.150000,0.207449,-0.434312,-9.926395,198.768425,20.499282,-9.918051,0.000000,0.000000,
214726747,198.517931,21.365157,3,-0.936462,-0.092529,0.153992,0.301270,0.450000,-0.170000,-0.130000,0.305693,-0.386218,-9.862514,198.972296,20.375188,-9.877395,0.000000,0.000000,
214736233,198.801378,21.360517,3,-0.932922,-0.094727,0.153992,0.311462,0.300000,-0.280000,-0.130000,0.125113,-0.395983,-9.927713,199.154187,20.268655,-9.914230,0.000000,0.000000,
214745960,199.474260,21.365157,3,-0.929260,-0.096924,0.153992,0.321533,0.360000,-0.340000,-0.130000,0.126573,-0.476670,-9.932227,199.371336,20.195079,-9.927405,0.000000,0.000000,
214757046,199.191301,21.369798,3,-0.925476,-0.099060,0.153931,0.331604,0.450000,-0.150000,-0.110000,0.282763,-0.388729,-9.841990,199.583095,20.073006,-9.864877,0.000000,0.000000,
214766416,199.482713,21.374438,3,-0.921631,-0.101196,0.153931,0.341553,0.300000,-0.170000,-0.090000,0.148987,-0.320546,-9.873643,199.764318,19.973227,-9.871294,0.000000,0.000000,
214776243,200.049181,21.365157,3,-0.917664,-0.103333,0.153931,0.351379,0.440000,-0.320000,-0.110000,0.158880,-0.528430,-9.907685,199.978335,19.896378,-9.897934,0.000000,0.000000,
214787013,199.949571,21.360517,3,-0.913635,-0.105408,0.153870,0.361206,0.380000,-0.090000,-0.110000,0.250075,-0.313024,-9.851534,200.190208,19.788196,-9.863967,0.000000,0.000000,
214796535,200.340074,21.369798,3,-0.909485,-0.107483,0.153870,0.370911,0.400000,-0.130000,-0.050000,0.209745,-0.368125,-9.805351,200.387783,19.705674,-9.821057,0.000000,0.000000,
214806267,200.148790,21.369798,3,-0.905273,-0.109497,0.153809,0.380554,0.340000,-0.400000,-0.070000,-0.010212,-0.516366,-9.923055,200.563801,19.591890,-9.895725,0.000000,0.000000,
214817338,200.722673,21.369798,3,-0.900940,-0.111511,0.153809,0.390137,0.400000,-0.170000,-0.090000,0.183135,-0.400823,-9.857271,200.790269,19.494167,-9.867575,0.000000,0.000000,
214826679,200.714769,21.360517,3,-0.896545,-0.113464,0.153809,0.399597,0.360000,-0.130000,-0.090000,0.176129,-0.351992,-9.864528,200.967099,19.396560,-9.865344,0.000000,0.000000,
214836550,201.005663,21.365157,3,-0.892029,-0.115417,0.153748,0.408997,0.220000,-0.320000,-0.050000,-0.063932,-0.370426,-9.916223,201.160545,19.301457,-9.902590,0.000000,0.000000,
214847291,201.488451,21.369798,3,-0.887451,-0.117371,0.153748,0.418335,0.280000,-0.210000,-0.050000,0.042925,-0.344643,-9.870087,201.388282,19.219032,-9.878796,0.000000,0.000000,
214856852,201.771471,21.365157,3,-0.882812,-0.119263,0.153687,0.427551,0.340000,-0.300000,-0.090000,0.019394,-0.442604,-9.929307,201.596113,19.151785,-9.915773,0.000000,0.000000,
214867630,201.679765,21.369798,3,-0.878052,-0.121155,0.153625,0.436768,0.220000,-0.360000,-0.030000,-0.121750,-0.391862,-9.915659,201.807312,19.050942,-9.915690,0.000000,0.000000,
214877132,202.062395,21.369798,3,-0.873230,-0.123047,0.153564,0.445862,0.380000,-0.130000,-0.050000,0.140659,-0.378594,-9.827479,202.004233,18.976050,-9.851115,0.000000,0.000000,
214886697,202.629015,21.360517,3,-0.868286,-0.124878,0.153442,0.454834,0.320000,-0.110000,-0.070000,0.122232,-0.326033,-9.849711,202.225260,18.926902,-9.850087,0.000000,0.000000,
214897762,202.254259,21.369798,3,-0.863342,-0.126648,0.153381,0.463745,0.210000,-0.260000,-0.010000,-0.074600,-0.314720,-9.873894,202.435937,18.819742,-9.867515,0.000000,0.000000,
214907058,202.254259,21.369798,3,-0.858276,-0.128418,0.153259,0.472595,0.320000,-0.150000,-0.050000,0.071232,-0.353696,-9.857522,202.598826,18.714959,-9.860200,0.000000,0.000000,
214916930,202.537309,21.365157,3,-0.853210,-0.130188,0.153137,0.481323,0.210000,-0.240000,-0.050000,-0.062014,-0.298956,-9.906814,202.779160,18.612731,-9.894324,0.000000,0.000000,
214927668,202.636919,21.369798,3,-0.848022,-0.131897,0.153076,0.489929,0.150000,-0.300000,-0.050000,-0.141243,-0.278216,-9.936859,202.969345,18.495803,-9.925462,0.000000,0.000000,
214937256,203.394395,21.360517,3,-0.842773,-0.133606,0.152893,0.498474,0.240000,-0.070000,-0.030000,0.065273,-0.242050,-9.821936,203.173449,18.432380,-9.849676,0.000000,0.000000,
214946961,202.644823,21.379078,3,-0.837463,-0.135315,0.152710,0.506958,0.240000,-0.110000,-0.010000,0.018665,-0.265303,-9.819267,203.318059,18.298987,-9.827415,0.000000,0.000000,
214958045,203.777635,21.360517,3,-0.832092,-0.137024,0.152588,0.515381,0.210000,-0.220000,-0.010000,-0.078479,-0.283930,-9.871491,203.549700,18.222642,-9.859681,0.000000,0.000000,
214967463,203.685381,21.365157,3,-0.826599,-0.138733,0.152344,0.523682,0.190000,-0.150000,-0.010000,-0.038831,-0.237000,-9.848161,203.729575,18.139720,-9.851248,0.000000,0.000000,
214977217,203.877275,21.365157,3,-0.821106,-0.140381,0.152161,0.531860,0.280000,-0.150000,0.010000,-0.013185,-0.319416,-9.818842,203.915494,18.054596,-9.827525,0.000000,0.000000,
214988208,203.494554,21.365157,3,-0.815552,-0.142090,0.151917,0.540039,0.220000,-0.210000,-0.010000,-0.090248,-0.285968,-9.869667,204.086381,17.915836,-9.858375,0.000000,0.000000,
214997671,204.076555,21.374438,3,-0.809937,-0.143738,0.151672,0.548035,0.190000,-0.170000,0.010000,-0.075890,-0.241269,-9.846573,204.254849,17.821950,-9.849735,0.000000,0.000000,
215007362,204.359636,21.369798,3,-0.804260,-0.145447,0.151367,0.556030,0.170000,-0.210000,-0.010000,-0.113803,-0.229763,-9.882172,204.433801,17.733739,-9.873481,0.000000,0.000000,
215018474,204.643266,21.365157,3,-0.798462,-0.147095,0.151062,0.563904,0.190000,-0.210000,0.000000,-0.114641,-0.254212,-9.870709,204.643663,17.639130,-9.871452,0.000000,0.000000,
215027891,204.351732,21.360517,3,-0.792725,-0.148743,0.150696,0.571655,0.150000,-0.090000,0.010000,-0.036050,-0.175210,-9.816068,204.790634,17.525559,-9.830908,0.000000,0.000000,
215037633,204.742387,21.369798,3,-0.786865,-0.150452,0.150330,0.579346,0.280000,-0.150000,0.000000,-0.045697,-0.308539,-9.838147,204.957813,17.426234,-9.836207,0.000000,0.000000,
215048460,204.276353,21.383718,3,-0.780945,-0.152100,0.149963,0.586975,0.150000,-0.070000,0.010000,-0.019170,-0.167558,-9.813699,205.102277,17.270900,-9.819730,0.000000,0.000000,
215057830,205.026048,21.365157,3,-0.774963,-0.153748,0.149597,0.594482,0.220000,-0.220000,0.050000,-0.159040,-0.271045,-9.837747,205.258791,17.173198,-9.832919,0.000000,0.000000,
215068560,204.643266,21.365157,3,-0.768982,-0.155396,0.149170,0.601868,0.210000,-0.260000,0.010000,-0.181626,-0.268503,-9.889313,205.403071,17.022752,-9.874203,0.000000,0.000000,
215077968,205.600725,21.365157,3,-0.763000,-0.157043,0.148682,0.609192,0.010000,-0.110000,0.030000,-0.103948,-0.041835,-9.813905,205.575447,16.944742,-9.830062,0.000000,0.000000,
215087698,205.691942,21.360517,3,-0.756897,-0.158691,0.148254,0.616394,0.280000,-0.150000,0.030000,-0.083586,-0.305512,-9.829864,205.747306,16.857492,-9.829917,0.000000,0.000000,
215098771,205.983507,21.365157,3,-0.750793,-0.160339,0.147766,0.623474,0.090000,-0.190000,0.010000,-0.150500,-0.125790,-9.869000,205.948485,16.765215,-9.858528,0.000000,0.000000,
215108250,206.174913,21.365157,3,-0.744629,-0.161987,0.147278,0.630554,0.050000,-0.090000,0.070000,-0.096961,-0.073699,-9.771914,206.121471,16.689009,-9.795122,0.000000,0.000000,
215117923,206.274583,21.369798,3,-0.738464,-0.163635,0.146790,0.637451,0.090000,-0.170000,0.090000,-0.176197,-0.116693,-9.787231,206.292243,16.605380,-9.789345,0.000000,0.000000,
215128641,205.891252,21.369798,3,-0.732239,-0.165283,0.146240,0.644348,-0.030000,-0.110000,0.070000,-0.131173,0.012313,-9.788912,206.443990,16.471608,-9.789028,0.000000,0.000000,
215138082,206.656877,21.369798,3,-0.725952,-0.166931,0.145691,0.651062,0.090000,-0.130000,0.030000,-0.115417,-0.095970,-9.829669,206.612687,16.394181,-9.818779,0.000000,0.000000,
215147785,207.040758,21.369798,3,-0.719666,-0.168579,0.145081,0.657715,0.190000,-0.090000,0.090000,-0.104301,-0.194371,-9.760644,206.798675,16.330291,-9.776221,0.000000,0.000000,
215158794,207.224260,21.360517,3,-0.713318,-0.170288,0.144409,0.664307,0.000000,-0.150000,0.070000,-0.165857,-0.004447,-9.798914,207.005095,16.253001,-9.792833,0.000000,0.000000,
215168387,207.131975,21.365157,3,-0.706970,-0.171997,0.143738,0.670776,0.240000,-0.010000,0.050000,-0.012288,-0.232544,-9.768670,207.168686,16.168471,-9.775145,0.000000,0.000000,
215178216,207.131975,21.365157,3,-0.700562,-0.173645,0.143066,0.677185,0.190000,0.050000,0.090000,0.017595,-0.192604,-9.704358,207.324791,16.070441,-9.723325,0.000000,0.000000,
215188935,207.323930,21.365157,3,-0.694153,-0.175354,0.142334,0.683472,0.000000,-0.170000,0.070000,-0.181332,-0.001646,-9.810173,207.496428,15.965244,-9.786902,0.000000,0.000000,
215198442,207.615556,21.369798,3,-0.687744,-0.177063,0.141602,0.689636,0.190000,-0.130000,0.070000,-0.146279,-0.186917,-9.800802,207.655394,15.880678,-9.797077,0.000000,0.000000,
215208342,207.615556,21.369798,3,-0.681274,-0.178772,0.140869,0.695740,0.220000,0.000000,0.090000,-0.040635,-0.216842,-9.737052,207.809589,15.781409,-9.753136,0.000000,0.000000,
215219427,207.615556,21.369798,3,-0.674805,-0.180481,0.140076,0.701721,-0.010000,0.000000,0.090000,-0.034830,0.005209,-9.719811,207.971503,15.659684,-9.728740,0.000000,0.000000,
215228939,208.098100,21.374438,3,-0.668274,-0.182251,0.139221,0.707703,0.110000,-0.150000,0.070000,-0.170903,-0.097949,-9.812689,208.128123,15.575493,-9.790195,0.000000,0.000000,
215238526,207.806993,21.369798,3,-0.661743,-0.184021,0.138428,0.713501,0.090000,-0.050000,0.090000,-0.087439,-0.081631,-9.746352,208.256446,15.458870,-9.758099,0.000000,0.000000,
215250479,208.189348,21.369798,3,-0.655151,-0.185730,0.137573,0.719238,0.050000,-0.010000,0.070000,-0.045989,-0.120485,-9.747541,208.436228,15.337521,-9.750370,0.000000,0.000000,
215259302,208.764207,21.369798,3,-0.648560,-0.187500,0.136658,0.724915,0.050000,-0.110000,0.130000,-0.152932,-0.035791,-9.738825,208.592213,15.275497,-9.741918,0.000000,0.000000,
215270801,208.381303,21.369798,3,-0.641968,-0.189270,0.135742,0.730469,0.110000,-0.070000,0.130000,-0.137595,-0.173508,-9.724945,208.753692,15.148423,-9.729493,0.000000,0.000000,
215279689,208.947221,21.360517,3,-0.635376,-0.191101,0.134827,0.735901,-0.030000,-0.070000,0.130000,-0.111002,0.041180,-9.710746,208.900367,15.076229,-9.715769,0.000000,0.000000,
215289170,209.338579,21.369798,3,-0.628784,-0.192932,0.133850,0.741272,0.010000,-0.110000,0.130000,-0.154296,0.006523,-9.733169,209.070927,15.015633,-9.728507,0.000000,0.000000,
215299871,208.672960,21.374438,3,-0.622131,-0.194763,0.132874,0.746582,0.050000,-0.090000,0.150000,-0.154410,-0.028712,-9.711354,209.205569,14.883039,-9.715950,0.000000,0.000000,
215309324,209.722032,21.369798,3,-0.615479,-0.196594,0.131897,0.751770,-0.030000,-0.090000,0.170000,-0.146963,0.045037,-9.680423,209.378902,14.828895,-9.689942,0.000000,0.000000,
215318896,209.338579,21.369798,3,-0.608826,-0.198486,0.130859,0.756836,0.050000,-0.130000,0.130000,-0.182521,-0.022513,-9.746694,209.517817,14.732692,-9.731488,0.000000,0.000000,
215329971,209.522142,21.360517,3,-0.602173,-0.200378,0.129761,0.761841,-0.010000,-0.010000,0.130000,-0.065781,0.006232,-9.683842,209.680666,14.625736,-9.696609,0.000000,0.000000,
215339205,209.438799,21.374438,3,-0.595459,-0.202271,0.128662,0.766785,0.010000,-0.070000,0.150000,-0.128065,0.008577,-9.693042,209.799822,14.518739,-9.693998,0.000000,0.000000,
215349073,209.530565,21.369798,3,-0.588745,-0.204224,0.127563,0.771606,0.070000,-0.090000,0.190000,-0.176210,-0.046391,-9.676077,209.925404,14.403884,-9.680879,0.000000,0.000000,
215359770,209.722032,21.369798,3,-0.582031,-0.206177,0.126343,0.776367,-0.030000,0.000000,0.190000,-0.078039,0.024553,-9.620442,210.065921,14.286341,-9.636636,0.000000,0.000000,
215369409,210.197313,21.365157,3,-0.575256,-0.208191,0.125122,0.781067,0.010000,-0.150000,0.150000,-0.197450,0.034920,-9.729132,210.211581,14.202027,-9.704347,0.000000,0.000000,
215379136,210.197313,21.365157,3,-0.568542,-0.210144,0.123901,0.785645,-0.050000,-0.110000,0.150000,-0.150471,0.081017,-9.702090,210.348353,14.106627,-9.702695,0.000000,0.000000,
215390215,210.205217,21.374438,3,-0.561768,-0.212158,0.122620,0.790161,0.050000,-0.090000,0.170000,-0.165164,-0.020717,-9.693152,210.494884,13.988947,-9.695709,0.000000,0.000000,
215399586,210.579729,21.365157,3,-0.555054,-0.214172,0.121277,0.794556,-0.010000,-0.090000,0.190000,-0.162530,0.038553,-9.666650,210.630984,13.904509,-9.674436,0.000000,0.000000,
215409457,210.197313,21.365157,3,-0.548340,-0.216248,0.119995,0.798889,0.000000,-0.130000,0.210000,-0.203903,0.043566,-9.667846,210.740022,13.777841,-9.669612,0.000000,0.000000,
215420205,210.396684,21.374438,3,-0.541565,-0.218262,0.118591,0.803162,-0.010000,-0.090000,0.190000,-0.156989,0.040494,-9.666118,210.865571,13.649243,-9.667054,0.000000,0.000000,
215429727,210.579729,21.365157,3,-0.534790,-0.220337,0.117188,0.807312,0.110000,-0.090000,0.170000,-0.188662,-0.075611,-9.714272,210.976796,13.536069,-9.701620,0.000000,0.000000,
215439451,210.963762,21.365157,3,-0.528015,-0.222412,0.115723,0.811401,0.030000,-0.090000,0.210000,-0.181922,-0.000867,-9.662666,211.107131,13.441171,-9.673104,0.000000,0.000000,
215450497,211.346758,21.365157,3,-0.521179,-0.224487,0.114197,0.815430,0.010000,-0.010000,0.190000,-0.102910,-0.011744,-9.644050,211.270355,13.351862,-9.651835,0.000000,0.000000,
215459822,210.971147,21.374438,3,-0.514465,-0.226624,0.112671,0.819336,0.090000,-0.070000,0.170000,-0.164247,-0.056285,-9.706131,211.375277,13.239680,-9.691582,0.000000,0.000000,
215469695,211.346758,21.365157,3,-0.507690,-0.228699,0.111145,0.823181,-0.010000,-0.030000,0.170000,-0.103840,0.018235,-9.658894,211.503698,13.142262,-9.667653,0.000000,0.000000,
215480430,211.154741,21.365157,3,-0.500916,-0.230835,0.109558,0.826904,0.070000,-0.070000,0.220000,-0.186262,-0.035492,-9.653930,211.621889,13.013514,-9.657607,0.000000,0.000000,
215489934,211.062944,21.369798,3,-0.494141,-0.232971,0.107971,0.830627,0.000000,-0.050000,0.210000,-0.135380,0.018202,-9.636591,211.709351,12.881534,-9.642222,0.000000,0.000000,
215500617,211.920763,21.365157,3,-0.487366,-0.235168,0.106323,0.834229,0.010000,-0.030000,0.210000,-0.125447,-0.006735,-9.636178,211.859951,12.793816,-9.637797,0.000000,0.000000,
215510121,211.637437,21.369798,3,-0.480591,-0.237305,0.104675,0.837708,0.030000,-0.030000,0.240000,-0.152533,-0.024699,-9.610281,211.966862,12.686396,-9.617654,0.000000,0.000000,
215519932,211.354662,21.374438,3,-0.473816,-0.239502,0.102966,0.841125,-0.010000,-0.070000,0.210000,-0.149451,0.035191,-9.643823,212.051698,12.547666,-9.636811,0.000000,0.000000,
215531004,212.396104,21.360517,3,-0.467041,-0.241699,0.101257,0.844482,0.030000,-0.010000,0.240000,-0.142567,-0.029357,-9.602163,212.212092,12.466122,-9.611447,0.000000,0.000000,
215540390,212.304826,21.365157,3,-0.460266,-0.243896,0.099487,0.847778,0.090000,-0.030000,0.240000,-0.179185,-0.069025,-9.630882,212.334615,12.382437,-9.625674,0.000000,0.000000,
215550132,212.687883,21.365157,3,-0.453491,-0.246155,0.097717,0.851013,0.050000,-0.050000,0.210000,-0.162057,-0.016947,-9.658037,212.477389,12.313823,-9.649366,0.000000,0.000000,
215561153,211.829485,21.369798,3,-0.446777,-0.248413,0.095947,0.854126,0.030000,0.000000,0.220000,-0.126670,-0.039081,-9.621383,212.571027,12.161141,-9.628881,0.000000,0.000000,
215570577,212.404558,21.369798,3,-0.440002,-0.250610,0.094116,0.857117,0.070000,-0.030000,0.240000,-0.174275,-0.055107,-9.633457,212.674542,12.058298,-9.632231,0.000000,0.000000,
215580161,213.170671,21.369798,3,-0.433289,-0.252869,0.092285,0.860107,0.030000,0.010000,0.220000,-0.119116,-0.045788,-9.617953,212.821409,12.001902,-9.621779,0.000000,0.000000,
215591275,212.687883,21.365157,3,-0.426575,-0.255127,0.090454,0.863037,0.110000,-0.030000,0.240000,-0.201349,-0.084745,-9.642293,212.945653,11.885143,-9.636796,0.000000,0.000000,
215600703,212.878862,21.365157,3,-0.419861,-0.257385,0.088562,0.865845,0.090000,-0.030000,0.260000,-0.201139,-0.067883,-9.624983,213.053001,11.789566,-9.628148,0.000000,0.000000,
215610466,213.262468,21.365157,3,-0.413147,-0.259644,0.086670,0.868530,0.050000,-0.010000,0.240000,-0.161141,-0.047337,-9.618718,213.181047,11.710763,-9.621245,0.000000,0.000000,
215621205,213.078325,21.374438,3,-0.406494,-0.261902,0.084778,0.871216,0.030000,-0.050000,0.240000,-0.166319,-0.002766,-9.626453,213.299678,11.599992,-9.625057,0.000000,0.000000,
215630645,213.462450,21.374438,3,-0.399841,-0.264221,0.082886,0.873779,0.090000,-0.010000,0.280000,-0.198809,-0.074470,-9.602520,213.419176,11.521119,-9.608559,0.000000,0.000000,
215640358,212.887834,21.374438,3,-0.393188,-0.266479,0.080994,0.876282,0.110000,-0.030000,0.260000,-0.213392,-0.078911,-9.632984,213.496643,11.389286,-9.626439,0.000000,0.000000,
215651437,213.653978,21.374438,3,-0.386536,-0.268799,0.079102,0.878723,0.030000,-0.030000,0.260000,-0.176488,-0.017768,-9.603094,213.632307,11.294195,-9.609349,0.000000,0.000000,
215660938,213.361681,21.369798,3,-0.379883,-0.271057,0.077148,0.881042,0.130000,-0.010000,0.280000,-0.227445,-0.101195,-9.616712,213.721847,11.183241,-9.614739,0.000000,0.000000,
215670645,213.646074,21.365157,3,-0.373230,-0.273376,0.075195,0.883362,0.130000,-0.050000,0.240000,-0.228913,-0.071257,-9.673770,213.825097,11.083872,-9.657953,0.000000,0.000000,
215681391,213.745805,21.369798,3,-0.366638,-0.275635,0.073181,0.885559,0.070000,-0.010000,0.260000,-0.185417,-0.061568,-9.619760,213.938575,10.974783,-9.629994,0.000000,0.000000,
215690899,214.320451,21.369798,3,-0.360046,-0.277893,0.071228,0.887756,0.130000,0.000000,0.280000,-0.225657,-0.107029,-9.624905,214.066936,10.910872,-9.626268,0.000000,0.000000,
215701599,214.037096,21.374438,3,-0.353394,-0.280212,0.069275,0.889832,0.070000,0.010000,0.300000,-0.200461,-0.077496,-9.582322,214.181224,10.806181,-9.594097,0.000000,0.000000,
215711023,214.128893,21.369798,3,-0.346863,-0.282471,0.067322,0.891846,0.050000,-0.050000,0.260000,-0.196779,-0.020201,-9.622595,214.279283,10.711705,-9.614959,0.000000,0.000000,
215720800,214.229173,21.374438,3,-0.340332,-0.284790,0.065308,0.893738,0.110000,0.010000,0.280000,-0.209771,-0.100838,-9.615796,214.380346,10.614082,-9.615572,0.000000,0.000000,
215731851,214.419664,21.374438,3,-0.333801,-0.287048,0.063293,0.895630,0.090000,0.010000,0.280000,-0.200680,-0.082686,-9.608618,214.499573,10.510722,-9.610481,0.000000,0.000000,
215741348,214.419664,21.374438,3,-0.327209,-0.289368,0.061340,0.897461,0.130000,-0.030000,0.280000,-0.250269,-0.085241,-9.644514,214.593839,10.413333,-9.635395,0.000000,0.000000,
215751059,214.795396,21.365157,3,-0.320740,-0.291687,0.059326,0.899170,0.110000,0.000000,0.280000,-0.229784,-0.090919,-9.621613,214.707406,10.334434,-9.625306,0.000000,0.000000,
215762168,215.087236,21.369798,3,-0.314209,-0.294006,0.057312,0.900879,0.110000,0.030000,0.320000,-0.235118,-0.119033,-9.582111,214.845946,10.255308,-9.593685,0.000000,0.000000,
215771393,215.287248,21.379078,3,-0.307739,-0.296265,0.055359,0.902466,0.090000,0.000000,0.280000,-0.215010,-0.083037,-9.616211,214.968409,10.198566,-9.610175,0.000000,0.000000,
215781119,215.186967,21.374438,3,-0.301270,-0.298584,0.053345,0.903992,0.090000,0.050000,0.300000,-0.193659,-0.120992,-9.584495,215.081129,10.121097,-9.591376,0.000000,0.000000,
215792237,215.279344,21.369798,3,-0.294861,-0.300842,0.051270,0.905518,0.090000,0.030000,0.320000,-0.228756,-0.099933,-9.573036,215.205756,10.028914,-9.577950,0.000000,0.000000,
215801669,215.570116,21.374438,3,-0.288452,-0.303162,0.049255,0.906921,0.110000,0.050000,0.280000,-0.209799,-0.125616,-9.616175,215.323260,9.964589,-9.605933,0.000000,0.000000,
215811365,214.895128,21.369798,3,-0.282043,-0.305481,0.047241,0.908264,0.110000,0.010000,0.260000,-0.219292,-0.091442,-9.649283,215.392027,9.840150,-9.637667,0.000000,0.000000,
215822282,215.370103,21.365157,3,-0.275635,-0.307739,0.045227,0.909546,0.130000,0.030000,0.320000,-0.260080,-0.120473,-9.600241,215.497477,9.733754,-9.610269,0.000000,0.000000,
215831642,215.095140,21.379078,3,-0.269287,-0.310059,0.043152,0.910767,0.150000,0.010000,0.260000,-0.246074,-0.116289,-9.670286,215.562394,9.614103,-9.654205,0.000000,0.000000,
215841529,215.653520,21.360517,3,-0.262939,-0.312378,0.041138,0.911926,0.090000,0.000000,0.300000,-0.236889,-0.076342,-9.603570,215.662811,9.525715,-9.617137,0.000000,0.000000,
215853489,215.279344,21.369798,3,-0.256653,-0.314636,0.039124,0.913025,0.150000,0.070000,0.300000,-0.275448,-0.246403,-9.620084,215.751468,9.383058,-9.619295,0.000000,0.000000,
215862325,216.145403,21.374438,3,-0.250366,-0.316956,0.037109,0.914062,0.050000,-0.010000,0.320000,-0.227764,-0.041851,-9.568835,215.859276,9.327238,-9.582356,0.000000,0.000000,
215871797,216.245164,21.379078,3,-0.244141,-0.319214,0.035095,0.915039,0.110000,0.000000,0.300000,-0.253456,-0.086381,-9.625561,215.971892,9.263943,-9.613984,0.000000,0.000000,
215883602,215.853532,21.369798,3,-0.237915,-0.321533,0.033142,0.915955,0.170000,0.050000,0.320000,-0.318104,-0.238795,-9.638230,216.072994,9.141659,-9.631733,0.000000,0.000000,
215892419,216.237230,21.369798,3,-0.231689,-0.323792,0.031128,0.916809,0.130000,0.000000,0.320000,-0.283532,-0.088294,-9.627992,216.163755,9.068723,-9.628995,0.000000,0.000000,
215902036,216.045122,21.369798,3,-0.225464,-0.326111,0.029175,0.917603,0.170000,0.010000,0.300000,-0.289222,-0.113010,-9.658022,216.242928,8.967282,-9.650244,0.000000,0.000000,
215912832,216.137498,21.365157,3,-0.219238,-0.328369,0.027161,0.918335,0.110000,0.010000,0.340000,-0.279377,-0.085848,-9.592920,216.332432,8.856109,-9.608280,0.000000,0.000000,
215922304,216.811510,21.369798,3,-0.213074,-0.330688,0.025208,0.919006,0.110000,-0.010000,0.340000,-0.289380,-0.072529,-9.597211,216.446565,8.799853,-9.600177,0.000000,0.000000,
215932884,216.045122,21.369798,3,-0.206909,-0.332947,0.023254,0.919678,0.130000,0.000000,0.300000,-0.276836,-0.080204,-9.649583,216.513421,8.668850,-9.636345,0.000000,0.000000,
215942317,216.620958,21.369798,3,-0.200806,-0.335266,0.021301,0.920227,0.110000,-0.050000,0.320000,-0.289547,-0.028868,-9.626813,216.601651,8.585816,-9.629367,0.000000,0.000000,
215951923,216.528581,21.374438,3,-0.194641,-0.337524,0.019348,0.920776,0.110000,-0.030000,0.360000,-0.312780,-0.054812,-9.595428,216.679012,8.488382,-9.604522,0.000000,0.000000,
215962998,217.003648,21.369798,3,-0.188599,-0.339783,0.017395,0.921204,0.110000,0.000000,0.340000,-0.291366,-0.072201,-9.605223,216.793206,8.405318,-9.605035,0.000000,0.000000,
215972343,216.520677,21.365157,3,-0.182495,-0.342102,0.015442,0.921631,0.110000,-0.010000,0.360000,-0.305918,-0.064569,-9.590299,216.853889,8.295999,-9.594248,0.000000,0.000000,
215982211,216.720720,21.374438,3,-0.176514,-0.344360,0.013489,0.921997,0.130000,0.000000,0.320000,-0.298168,-0.080716,-9.637851,216.926767,8.191311,-9.626167,0.000000,0.000000,
215992935,217.111314,21.383718,3,-0.170471,-0.346680,0.011536,0.922302,0.110000,0.010000,0.360000,-0.306120,-0.086911,-9.593976,217.025870,8.101686,-9.602601,0.000000,0.000000,
216002479,217.103410,21.374438,3,-0.164429,-0.348938,0.009583,0.922546,0.110000,-0.030000,0.340000,-0.305662,-0.046761,-9.615749,217.107717,8.015510,-9.612226,0.000000,0.000000,
216012215,217.103410,21.374438,3,-0.158508,-0.351196,0.007690,0.922729,0.090000,-0.010000,0.380000,-0.315250,-0.055236,-9.573350,217.185028,7.921995,-9.583767,0.000000,0.000000,
216023306,217.295518,21.374438,3,-0.152588,-0.353516,0.005737,0.922913,0.130000,-0.030000,0.340000,-0.324285,-0.043276,-9.634957,217.279369,7.823092,-9.621241,0.000000,0.000000,
216032631,217.578996,21.369798,3,-0.146667,-0.355774,0.003784,0.922974,0.050000,-0.010000,0.340000,-0.256577,-0.036829,-9.577218,217.371089,7.755479,-9.589014,0.000000,0.000000,
216042496,217.487138,21.374438,3,-0.140747,-0.358093,0.001831,0.923035,0.090000,-0.050000,0.340000,-0.296822,-0.008326,-9.612225,217.454551,7.669012,-9.606005,0.000000,0.000000,
216053214,216.903886,21.365157,3,-0.134888,-0.360352,-0.000122,0.923035,0.110000,-0.070000,0.340000,-0.324970,0.005906,-9.625076,217.500951,7.526241,-9.619966,0.000000,0.000000,
216062733,217.195757,21.369798,3,-0.129089,-0.362610,-0.002075,0.922974,0.050000,-0.050000,0.360000,-0.286801,0.002397,-9.567459,217.552625,7.413130,-9.581528,0.000000,0.000000,
216072476,217.386858,21.369798,3,-0.123230,-0.364868,-0.004028,0.922852,0.030000,-0.110000,0.360000,-0.287042,0.056556,-9.564528,217.613797,7.308006,-9.569083,0.000000,0.000000,
216083557,217.487138,21.374438,3,-0.117493,-0.367188,-0.005981,0.922668,0.110000,-0.050000,0.340000,-0.311290,-0.013849,-9.629142,217.686076,7.192222,-9.613049,0.000000,0.000000,
216092887,217.487138,21.374438,3,-0.111755,-0.369446,-0.007874,0.922485,0.050000,-0.010000,0.380000,-0.298863,-0.044808,-9.557660,217.740027,7.088674,-9.572502,0.000000,0.000000,
216102723,217.670305,21.365157,3,-0.106018,-0.371704,-0.009827,0.922241,0.070000,-0.050000,0.340000,-0.291597,-0.002066,-9.605461,217.804826,6.989173,-9.596630,0.000000,0.000000,
216113477,217.386858,21.369798,3,-0.100342,-0.373962,-0.011841,0.921936,0.070000,-0.070000,0.340000,-0.293109,0.022316,-9.609575,217.852680,6.855765,-9.606107,0.000000,0.000000,
216123006,217.679277,21.374438,3,-0.094666,-0.376221,-0.013794,0.921570,0.050000,-0.050000,0.340000,-0.277805,-0.000717,-9.590689,217.906472,6.751847,-9.594820,0.000000,0.000000,
216132741,218.245714,21.365157,3,-0.088989,-0.378479,-0.015747,0.921204,0.010000,-0.070000,0.360000,-0.266177,0.027319,-9.553929,217.993448,6.683277,-9.564886,0.000000,0.000000,
216143817,217.770616,21.369798,3,-0.083374,-0.380798,-0.017761,0.920715,0.090000,-0.110000,0.380000,-0.346466,0.057486,-9.595268,218.052618,6.560988,-9.587127,0.000000,0.000000,
216153227,218.153337,21.369798,3,-0.077759,-0.383057,-0.019714,0.920227,0.030000,-0.070000,0.340000,-0.267227,0.024772,-9.585847,218.120383,6.478076,-9.586190,0.000000,0.000000,
216164147,218.245714,21.365157,3,-0.072205,-0.385315,-0.021729,0.919678,0.030000,-0.090000,0.360000,-0.290260,0.047008,-9.571790,218.198581,6.382581,-9.575648,0.000000,0.000000,
216173530,218.245714,21.365157,3,-0.066711,-0.387573,-0.023682,0.919128,0.030000,-0.090000,0.380000,-0.303122,0.039577,-9.551267,218.261070,6.296385,-9.557800,0.000000,0.000000,
216183255,218.628984,21.365157,3,-0.061157,-0.389893,-0.025757,0.918457,0.110000,-0.070000,0.360000,-0.339432,0.021597,-9.631002,218.345389,6.229268,-9.611388,0.000000,0.000000,
216194210,217.953264,21.360517,3,-0.055725,-0.392151,-0.027771,0.917786,0.090000,-0.090000,0.420000,-0.371351,0.043836,-9.570332,218.387946,6.096177,-9.581333,0.000000,0.000000,
216203674,218.345476,21.369798,3,-0.050354,-0.394470,-0.029785,0.917053,0.000000,-0.110000,0.340000,-0.260807,0.082882,-9.563135,218.442492,6.002601,-9.568011,0.000000,0.000000,
216213295,218.345476,21.369798,3,-0.044983,-0.396790,-0.031860,0.916260,0.000000,-0.110000,0.380000,-0.287904,0.075714,-9.532203,218.493596,5.903895,-9.541798,0.000000,0.000000,
216224325,219.587724,21.365157,3,-0.039612,-0.399048,-0.033936,0.915466,0.030000,-0.110000,0.380000,-0.309083,0.081605,-9.565543,218.628187,5.877115,-9.559180,0.000000,0.000000,
216233815,218.254167,21.374438,3,-0.034302,-0.401367,-0.036011,0.914551,0.050000,-0.110000,0.360000,-0.306068,0.080025,-9.591981,218.659569,5.758998,-9.583192,0.000000,0.000000,
216243548,218.628984,21.365157,3,-0.028992,-0.403687,-0.038086,0.913635,0.070000,-0.130000,0.360000,-0.320469,0.097244,-9.605200,218.713208,5.663304,-9.599303,0.000000,0.000000,
216254419,218.445268,21.374438,3,-0.023743,-0.405945,-0.040222,0.912720,0.010000,-0.110000,0.380000,-0.294679,0.074944,-9.548598,218.757055,5.540197,-9.562184,0.000000,0.000000,
216263806,218.537645,21.369798,3,-0.018494,-0.408264,-0.042358,0.911682,0.000000,-0.110000,0.380000,-0.288156,0.083537,-9.541447,218.794591,5.434760,-9.547004,0.000000,0.000000,
216273516,219.113084,21.369798,3,-0.013306,-0.410583,-0.044495,0.910645,0.070000,-0.150000,0.380000,-0.337593,0.122589,-9.593074,218.867281,5.364560,-9.580729,0.000000,0.000000,
216284625,218.821153,21.365157,3,-0.008118,-0.412903,-0.046692,0.909546,0.050000,-0.130000,0.380000,-0.323386,0.102862,-9.582294,218.923332,5.254794,-9.581875,0.000000,0.000000,
216294080,218.821153,21.365157,3,-0.002991,-0.415222,-0.048889,0.908386,0.010000,-0.130000,0.380000,-0.304802,0.100937,-9.549206,218.966045,5.157119,-9.557959,0.000000,0.000000,
216303798,219.313188,21.379078,3,0.002136,-0.417480,-0.051086,0.907227,-0.010000,-0.110000,0.360000,-0.271446,0.081824,-9.545792,219.037924,5.089388,-9.549052,0.000000,0.000000,
216314607,219.304216,21.369798,3,0.007202,-0.419800,-0.053345,0.906006,0.010000,-0.150000,0.360000,-0.287110,0.123786,-9.562399,219.109424,5.005198,-9.558823,0.000000,0.000000,
216323935,218.829057,21.374438,3,0.012268,-0.422119,-0.055542,0.904724,0.000000,-0.130000,0.400000,-0.305187,0.099684,-9.529888,219.137749,4.896035,-9.537641,0.000000,0.000000,
216333698,219.396074,21.365157,3,0.017273,-0.424438,-0.057800,0.903442,-0.050000,-0.130000,0.400000,-0.283222,0.096259,-9.492817,219.201618,4.821951,-9.504828,0.000000,0.000000,
216344789,218.920915,21.369798,3,0.022217,-0.426758,-0.060059,0.902100,-0.030000,-0.190000,0.360000,-0.261554,0.161260,-9.526210,219.236544,4.696128,-9.520481,0.000000,0.000000,
216354212,219.203905,21.365157,3,0.027161,-0.429077,-0.062317,0.900696,0.000000,-0.170000,0.340000,-0.267650,0.146038,-9.558902,219.278280,4.603680,-9.548607,0.000000,0.000000,
216363940,219.203905,21.365157,3,0.032043,-0.431458,-0.064636,0.899231,0.000000,-0.170000,0.380000,-0.292964,0.134409,-9.537378,219.317856,4.505540,-9.540387,0.000000,0.000000,
216374612,219.212358,21.374438,3,0.036865,-0.433777,-0.066956,0.897766,-0.010000,-0.170000,0.380000,-0.290555,0.133919,-9.526470,219.358646,4.396282,-9.530199,0.000000,0.000000,
216384151,219.021227,21.374438,3,0.041687,-0.436157,-0.069275,0.896240,-0.070000,-0.170000,0.380000,-0.254896,0.129042,-9.491641,219.378555,4.281380,-9.501973,0.000000,0.000000,
216393729,219.304216,21.369798,3,0.046509,-0.438477,-0.071655,0.894653,0.010000,-0.190000,0.400000,-0.316756,0.159300,-9.528943,219.414372,4.184759,-9.521717,0.000000,0.000000,
216404759,219.695970,21.379078,3,0.051270,-0.440857,-0.074036,0.893005,-0.010000,-0.220000,0.420000,-0.322304,0.176771,-9.497238,219.477968,4.100213,-9.503797,0.000000,0.000000,
216414342,219.403978,21.374438,3,0.056030,-0.443237,-0.076477,0.891357,-0.050000,-0.210000,0.380000,-0.270139,0.167442,-9.492255,219.512089,4.003905,-9.495348,0.000000,0.000000,
216425292,219.495866,21.369798,3,0.060791,-0.445618,-0.078918,0.889648,-0.030000,-0.210000,0.420000,-0.317482,0.171407,-9.485557,219.554324,3.898866,-9.488181,0.000000,0.000000,
216434726,219.687517,21.369798,3,0.065491,-0.448059,-0.081421,0.887878,-0.050000,-0.210000,0.360000,-0.254205,0.166054,-9.501736,219.599216,3.818873,-9.498104,0.000000,0.000000,
216444322,219.787309,21.374438,3,0.070129,-0.450439,-0.083923,0.886108,-0.030000,-0.240000,0.380000,-0.284504,0.202190,-9.502802,219.647460,3.741257,-9.501543,0.000000,0.000000,
216456074,219.596178,21.374438,3,0.074829,-0.452820,-0.086487,0.884216,-0.050000,-0.240000,0.400000,-0.337386,0.101786,-9.472464,219.687488,3.626230,-9.480256,0.000000,0.000000,
216464939,219.971574,21.365157,3,0.079468,-0.455200,-0.089050,0.882324,-0.050000,-0.240000,0.420000,-0.300522,0.184631,-9.461463,219.737477,3.563028,-9.466498,0.000000,0.000000,
216474568,219.587724,21.365157,3,0.084106,-0.457642,-0.091675,0.880371,-0.010000,-0.220000,0.420000,-0.326963,0.182582,-9.504140,219.761761,3.460708,-9.494054,0.000000,0.000000,
216486419,219.687517,21.369798,3,0.088684,-0.460022,-0.094360,0.878418,-0.050000,-0.240000,0.380000,-0.330267,0.103396,-9.488612,219.797349,3.342912,-9.490070,0.000000,0.000000,
216495332,220.171678,21.374438,3,0.093262,-0.462463,-0.097046,0.876404,-0.010000,-0.240000,0.380000,-0.297443,0.199552,-9.521040,219.850773,3.285277,-9.512742,0.000000,0.000000,
216504792,219.787309,21.374438,3,0.097778,-0.464844,-0.099731,0.874268,-0.010000,-0.260000,0.360000,-0.275757,0.218711,-9.529874,219.877363,3.190540,-9.525283,0.000000,0.000000,
216515820,219.787309,21.374438,3,0.102356,-0.467285,-0.102478,0.872192,-0.070000,-0.280000,0.380000,-0.259730,0.215568,-9.457691,219.906209,3.079733,-9.475802,0.000000,0.000000,
216525199,220.070818,21.369798,3,0.106873,-0.469727,-0.105286,0.869995,-0.070000,-0.260000,0.400000,-0.275371,0.194788,-9.458244,219.945222,3.002948,-9.462948,0.000000,0.000000,
216534905,219.787309,21.374438,3,0.111389,-0.472107,-0.108154,0.867737,-0.050000,-0.300000,0.420000,-0.299806,0.235241,-9.445196,219.963821,2.899890,-9.449953,0.000000,0.000000,
216545858,220.070818,21.369798,3,0.115967,-0.474548,-0.111023,0.865479,-0.090000,-0.220000,0.380000,-0.259216,0.152039,-9.461563,220.001866,2.803959,-9.458452,0.000000,0.000000,
216555310,220.163225,21.365157,3,0.120544,-0.476929,-0.114014,0.863159,-0.010000,-0.320000,0.420000,-0.318200,0.270593,-9.474953,220.038279,2.726071,-9.470531,0.000000,0.000000,
216564866,219.971574,21.365157,3,0.125122,-0.479309,-0.117004,0.860779,-0.090000,-0.260000,0.380000,-0.251632,0.183937,-9.451121,220.059632,2.630950,-9.456322,0.000000,0.000000,
216575345,219.495866,21.369798,3,0.129639,-0.481750,-0.120117,0.858337,-0.130000,-0.280000,0.400000,-0.247380,0.190676,-9.401253,220.050628,2.491911,-9.416009,0.000000,0.000000,
216584902,219.687517,21.369798,3,0.134216,-0.484131,-0.123169,0.855835,-0.050000,-0.280000,0.420000,-0.307035,0.210762,-9.457777,220.050785,2.375345,-9.446585,0.000000,0.000000,
216594740,219.779375,21.365157,3,0.138733,-0.486572,-0.126343,0.853271,-0.130000,-0.300000,0.360000,-0.209117,0.207429,-9.410052,220.056352,2.263265,-9.419841,0.000000,0.000000,
216605732,220.070818,21.369798,3,0.143250,-0.488953,-0.129578,0.850647,-0.090000,-0.280000,0.400000,-0.276134,0.196879,-9.429766,220.081586,2.160654,-9.427106,0.000000,0.000000,
216615375,220.171678,21.374438,3,0.147766,-0.491333,-0.132812,0.848022,-0.150000,-0.300000,0.380000,-0.226273,0.188167,-9.383877,220.107753,2.076686,-9.395460,0.000000,0.000000,
216625051,220.171678,21.374438,3,0.152283,-0.493713,-0.136169,0.845276,-0.150000,-0.300000,0.380000,-0.223470,0.184403,-9.384106,220.131497,1.990492,-9.387148,0.000000,0.000000,
