Code compiled on Feb  7 2026 at 08:04:56
﻿Simulation Mode (T/F),F
Airbrakes Enabled (T/F),T
Log File Name,D
Sim File Name (if applicable),Sim
Burnout Mass (kg),0.643
Air Density (kg/m^3),1.18
Rocket CD,0.71
Airbrake CD,0.8
Rocket Area (m^2),0.00243
Kalman Model Y STD,0.05
Kalman Model V STD,0.1
Kalman Model A STD,0.015
Kalman Measurement Y STD,0.26
Kalman Measurement A STD,0.013
Target Apogee (m),200
Launch Acceleration Threshold (m/s^2),20
Coast Lockout (s),1.5
KP (1/s),0.24
Altimeter Lockout (s),60
Control Max Velocity (dep/s),2

Calibration point: 139.806889
Time (us),Altitude AGL (m),Temperature (deg C),Mode,IMU Quat W,IMU Quat X,IMU Quat Y,IMU Quat Z,IMU Local Acceleration X,IMU Local Acceleration Y,IMU Local Acceleration Z,IMU Global Acceleration x,IMU Global Acceleration y,IMU Global Acceleration z,State Estimation y,State Estimation v,State Estimation a,Commanded servo deployment,Real servo deployment,
383594384,-0.210393,11.381326,1,-0.108643,0.021362,-0.012512,0.993774,-0.060000,-0.030000,0.110000,0.057037,0.040046,0.108366,0.000000,0.000000,0.000000,0.000000,0.000000,
383608004,0.152461,11.381326,1,-0.107605,0.021423,-0.012512,0.993896,-0.020000,0.120000,-0.150000,0.038331,-0.109862,-0.154151,0.064808,-0.002076,-0.152434,0.000000,0.000000,
383616888,-0.210393,11.381326,1,-0.107178,0.021362,-0.012512,0.993958,-0.520000,-0.100000,-0.250000,0.475093,0.213824,-0.267436,-0.083337,-0.007019,-0.266169,0.000000,0.000000,
383626115,-0.305181,11.385974,1,-0.106873,0.021301,-0.012512,0.993958,-0.040000,0.400000,-0.080000,0.120215,-0.380579,-0.093260,-0.207903,-0.011345,-0.095165,0.000000,0.000000,
383639428,-0.312322,11.395268,1,-0.106628,0.021301,-0.012451,0.994019,0.190000,0.390000,-0.050000,-0.105311,-0.420417,-0.053823,-0.267139,-0.014630,-0.054279,0.000000,0.000000,
383648350,-0.044255,11.399915,1,-0.106140,0.021301,-0.012451,0.994019,0.440000,0.430000,0.020000,-0.338234,-0.513616,0.024857,-0.140915,-0.004421,0.023985,0.000000,0.000000,
383657232,0.122386,11.418503,1,-0.105164,0.021362,-0.012451,0.994141,0.540000,0.460000,-0.080000,-0.435217,-0.561248,-0.071835,0.008351,0.007574,-0.070779,0.000000,0.000000,
383669941,0.666179,11.418503,1,-0.103577,0.021362,-0.012329,0.994324,0.270000,0.450000,0.090000,-0.167463,-0.497787,0.087646,0.381700,0.044799,0.085901,0.000000,0.000000,
383678614,-0.248113,11.427798,1,-0.101196,0.021362,-0.012146,0.994568,0.310000,0.560000,-0.040000,-0.192738,-0.610144,-0.043492,0.024550,-0.006381,-0.042066,0.000000,0.000000,
383687492,0.390452,11.423151,1,-0.098022,0.021423,-0.011841,0.994873,0.670000,0.520000,0.050000,-0.553079,-0.641825,0.062510,0.232182,0.023174,0.061357,0.000000,0.000000,
383700130,-0.168096,11.441739,1,-0.093994,0.021423,-0.011536,0.995300,0.240000,0.550000,0.050000,-0.130686,-0.586160,0.044811,0.005125,-0.010414,0.044993,0.000000,0.000000,
383708702,-0.080953,11.446386,1,-0.090027,0.021484,-0.011292,0.995667,-0.350000,0.190000,-0.130000,0.372179,-0.121553,-0.149116,-0.043888,-0.021812,-0.146977,0.000000,0.000000,
383717585,0.187114,11.451033,1,-0.086426,0.021301,-0.011108,0.995972,-0.260000,0.520000,-0.100000,0.340723,-0.465382,-0.123838,0.087148,0.002698,-0.124093,0.000000,0.000000,
383730244,-0.269505,11.455680,1,-0.083130,0.021118,-0.010986,0.996277,-0.690000,0.020000,-0.030000,0.681896,0.095443,-0.058248,-0.115612,-0.039331,-0.058974,0.000000,0.000000,
383738425,-0.088094,11.455680,1,-0.079712,0.021057,-0.010864,0.996521,-0.250000,0.040000,0.010000,0.253360,0.000169,-0.001071,-0.100279,-0.035086,-0.001709,0.000000,0.000000,
383747035,0.448558,11.464974,1,-0.076416,0.020996,-0.010742,0.996765,-0.140000,-0.210000,-0.100000,0.101978,0.230683,-0.100348,0.211438,0.040553,-0.099261,0.000000,0.000000,
383759815,0.085689,11.464974,1,-0.073975,0.020935,-0.010681,0.997009,-0.500000,-0.260000,-0.070000,0.452873,0.332373,-0.083662,0.140386,0.021623,-0.083834,0.000000,0.000000,
383768539,0.085689,11.464974,1,-0.072327,0.020813,-0.010620,0.997131,-0.280000,-0.110000,0.000000,0.261037,0.149345,-0.008531,0.109420,0.011138,-0.009361,0.000000,0.000000,
383777424,0.078563,11.474269,1,-0.071289,0.020752,-0.010681,0.997192,-0.360000,-0.270000,0.070000,0.320780,0.317264,0.062123,0.091958,0.006268,0.061335,0.000000,0.000000,
383789962,-0.102864,11.474269,1,-0.070923,0.020630,-0.010742,0.997192,-0.270000,-0.230000,0.010000,0.235030,0.265742,0.004892,-0.018967,-0.028062,0.005514,0.000000,0.000000,
383798542,0.071422,11.483563,1,-0.071106,0.020569,-0.010864,0.997192,-0.450000,-0.190000,-0.020000,0.417349,0.252422,-0.033070,0.032326,-0.007963,-0.032645,0.000000,0.000000,
383807427,0.339488,11.488210,1,-0.072021,0.020508,-0.010986,0.997131,-0.970000,-0.790000,-0.100000,0.841760,0.923266,-0.118385,0.207223,0.053881,-0.117441,0.000000,0.000000,
383820170,-0.212438,11.497504,1,-0.073730,0.020325,-0.011169,0.997009,-1.080000,0.010000,-0.150000,1.062508,0.152274,-0.192083,-0.031466,-0.034573,-0.191260,0.000000,0.000000,
383828601,-0.118154,11.492857,1,-0.075867,0.020203,-0.011353,0.996826,-0.650000,-0.200000,-0.090000,0.607990,0.298001,-0.109824,-0.081240,-0.058270,-0.110721,0.000000,0.000000,
383841256,0.252849,11.483563,1,-0.080383,0.020447,-0.011414,0.996460,-0.380000,-0.160000,-0.100000,0.344912,0.220870,-0.110512,0.108774,0.018424,-0.110515,0.000000,0.000000,
383849566,-0.205296,11.488210,1,-0.080383,0.020447,-0.011414,0.996460,0.100000,0.580000,-0.030000,-0.007246,-0.587769,-0.041175,-0.070469,-0.072482,-0.041939,0.000000,0.000000,
383858288,0.339488,11.488210,1,-0.083862,0.020508,-0.011719,0.996216,0.070000,0.290000,-0.070000,-0.023643,-0.296199,-0.074968,0.162722,0.030376,-0.074604,0.000000,0.000000,
383870670,0.244197,11.492857,1,-0.087158,0.020691,-0.011902,0.995911,0.340000,0.320000,-0.050000,-0.281315,-0.373238,-0.045376,0.209626,0.050055,-0.045698,0.000000,0.000000,
383879259,0.149913,11.497504,1,-0.089600,0.020874,-0.011963,0.995667,-0.070000,-0.020000,0.000000,0.065251,0.032196,-0.002208,0.175925,0.031426,-0.002688,0.000000,0.000000,
383888196,-0.132421,11.511445,1,-0.092163,0.020935,-0.012085,0.995422,0.010000,0.230000,-0.020000,0.031386,-0.227436,-0.026003,0.000173,-0.055535,-0.025746,0.000000,0.000000,
383900890,0.142772,11.506798,1,-0.095276,0.020996,-0.012207,0.995178,-0.020000,0.240000,0.090000,0.068980,-0.233618,0.082313,0.081016,-0.014688,0.081122,0.000000,0.000000,
383909060,0.142772,11.506798,1,-0.098572,0.021118,-0.012451,0.994812,-0.080000,0.480000,0.140000,0.178481,-0.457647,0.122777,0.116235,0.007982,0.122318,0.000000,0.000000,
383918029,-0.393865,11.497504,1,-0.101807,0.021118,-0.012634,0.994507,0.030000,0.600000,0.100000,0.096282,-0.595562,0.083404,-0.175081,-0.146476,0.083833,0.000000,0.000000,
383930717,0.149913,11.497504,1,-0.104980,0.021118,-0.012817,0.994141,0.050000,0.770000,0.060000,0.114139,-0.764419,0.038854,0.009059,-0.047159,0.039350,0.000000,0.000000,
383939266,0.324199,11.506798,1,-0.107422,0.021118,-0.012939,0.993896,0.150000,0.570000,-0.010000,-0.025445,-0.588535,-0.021355,0.189174,0.072903,-0.020686,0.000000,0.000000,
383947813,0.418483,11.502151,1,-0.108948,0.021240,-0.012939,0.993713,0.160000,0.490000,-0.040000,-0.052016,-0.512048,-0.048516,0.320891,0.149980,-0.048210,0.000000,0.000000,
383960232,0.142772,11.506798,1,-0.110046,0.021362,-0.012939,0.993591,0.210000,0.250000,-0.010000,-0.150625,-0.289669,-0.009275,0.220767,0.092197,-0.009704,0.000000,0.000000,
383968941,-0.226705,11.516092,1,-0.110535,0.021423,-0.012939,0.993530,0.070000,0.340000,-0.020000,0.005362,-0.346536,-0.027547,-0.034922,-0.088736,-0.027351,0.000000,0.000000,
383977846,0.056132,11.502151,1,-0.110535,0.021484,-0.012939,0.993530,0.120000,0.090000,0.010000,-0.096772,-0.114395,0.012026,0.016394,-0.055491,0.011592,0.000000,0.000000,
383990537,0.324199,11.506798,1,-0.110718,0.021484,-0.012939,0.993530,-0.040000,0.120000,-0.010000,0.064860,-0.107983,-0.015237,0.192164,0.053797,-0.014941,0.000000,0.000000,
383999356,0.142772,11.506798,1,-0.111023,0.021484,-0.012939,0.993469,-0.050000,0.170000,0.020000,0.087033,-0.155092,0.012802,0.164289,0.032089,0.012497,0.000000,0.000000,
384008380,0.048488,11.511445,1,-0.111328,0.021484,-0.012939,0.993469,-0.020000,0.310000,0.050000,0.090165,-0.298826,0.039688,0.098243,-0.013332,0.039388,0.000000,0.000000,
384028799,0.599925,11.502151,1,-0.111572,0.021484,-0.012939,0.993408,0.020000,0.530000,0.080000,0.101357,-0.522678,0.064529,0.387415,0.180927,0.064252,0.000000,0.000000,
384037578,-0.038152,11.506798,1,-0.110840,0.021484,-0.012939,0.993530,-0.030000,0.210000,0.000000,0.075371,-0.198153,-0.007594,0.142254,-0.096965,-0.006803,0.000000,0.000000,
384046458,0.142772,11.506798,1,-0.109436,0.021545,-0.012817,0.993652,-0.140000,-0.050000,0.020000,0.126569,0.078891,0.015883,0.141692,-0.096568,0.015633,0.000000,0.000000,
384058912,0.142772,11.506798,1,-0.107849,0.021606,-0.012756,0.993835,-0.380000,-0.180000,-0.050000,0.330010,0.258448,-0.059808,0.141105,-0.096843,-0.058977,0.000000,0.000000,
384067815,0.149913,11.497504,1,-0.106750,0.021606,-0.012695,0.993958,-0.260000,-0.060000,-0.050000,0.238836,0.114959,-0.058609,0.145306,-0.092966,-0.058613,0.000000,0.000000,
384076420,0.056132,11.502151,1,-0.106506,0.021606,-0.012695,0.994019,-0.160000,-0.160000,-0.020000,0.121531,0.190711,-0.021640,0.093364,-0.132664,-0.022048,0.000000,0.000000,
384089426,0.324199,11.506798,1,-0.106750,0.021606,-0.012695,0.993958,-0.050000,-0.080000,-0.040000,0.030052,0.089610,-0.039574,0.224281,-0.037281,-0.039381,0.000000,0.000000,
384098118,0.056132,11.502151,1,-0.107422,0.021667,-0.012695,0.993896,-0.080000,0.140000,-0.040000,0.106064,-0.118774,-0.047362,0.127206,-0.125545,-0.047274,0.000000,0.000000,
384106983,0.048488,11.511445,1,-0.108398,0.021667,-0.012756,0.993774,-0.190000,0.110000,0.110000,0.214025,-0.068605,0.098898,0.080927,-0.160764,0.097288,0.000000,0.000000,
384119697,-0.495275,11.511445,1,-0.109497,0.021606,-0.012756,0.993652,-0.110000,0.360000,-0.070000,0.182189,-0.325784,-0.085157,-0.252455,-0.415246,-0.083147,0.000000,0.000000,
384128151,-0.226705,11.516092,1,-0.110413,0.021606,-0.012817,0.993591,-0.020000,0.180000,-0.110000,0.053855,-0.168892,-0.116107,-0.241150,-0.402306,-0.115744,0.000000,0.000000,
384137045,-0.038152,11.506798,1,-0.111145,0.021667,-0.012756,0.993469,0.000000,0.220000,-0.080000,0.044792,-0.212836,-0.086535,-0.128218,-0.307626,-0.086856,0.000000,0.000000,
384149721,0.411357,11.511445,1,-0.111816,0.021729,-0.012756,0.993408,0.000000,0.310000,0.000000,0.068697,-0.302146,-0.009363,0.178305,-0.061593,-0.010217,0.000000,0.000000,
384157876,0.135646,11.516092,1,-0.112610,0.021729,-0.012756,0.993347,0.020000,0.190000,-0.060000,0.020163,-0.188399,-0.064863,0.153243,-0.086077,-0.064261,0.000000,0.000000,
384166776,0.041362,11.520739,1,-0.113403,0.021729,-0.012756,0.993225,0.160000,0.380000,-0.060000,-0.073102,-0.405003,-0.064983,0.088248,-0.140383,-0.064975,0.000000,0.000000,
384179599,0.411357,11.511445,1,-0.114136,0.021790,-0.012817,0.993164,0.190000,0.460000,0.070000,-0.077620,-0.492517,0.063579,0.272448,0.012575,0.062162,0.000000,0.000000,
384188182,-0.038152,11.506798,1,-0.114807,0.021851,-0.012756,0.993042,0.230000,0.360000,0.130000,-0.135788,-0.405572,0.128214,0.093541,-0.168420,0.127486,0.000000,0.000000,
384196786,0.229915,11.511445,1,-0.115173,0.021851,-0.012634,0.993042,0.190000,0.290000,0.070000,-0.115374,-0.327204,0.068867,0.170446,-0.097926,0.069513,0.000000,0.000000,
384209579,0.317073,11.516092,1,-0.115112,0.021851,-0.012573,0.993042,-0.260000,0.290000,-0.140000,0.312531,-0.219857,-0.159053,0.253621,-0.028804,-0.156535,0.000000,0.000000,
384218210,-0.408132,11.516092,1,-0.114929,0.021851,-0.012573,0.993042,-0.170000,0.140000,-0.300000,0.183332,-0.091369,-0.310704,-0.128271,-0.431794,-0.309005,0.000000,0.000000,
384227086,-0.045796,11.516092,1,-0.114807,0.021851,-0.012512,0.993042,-0.290000,-0.010000,-0.420000,0.260339,0.084345,-0.430921,-0.084700,-0.391836,-0.429577,0.000000,0.000000,
384239799,-0.045796,11.516092,1,-0.114807,0.021851,-0.012512,0.993042,-0.340000,0.020000,-0.220000,0.325046,0.062610,-0.234097,-0.067276,-0.374969,-0.236251,0.000000,0.000000,
384248281,-0.045796,11.516092,1,-0.115295,0.021790,-0.012512,0.992981,-0.110000,0.260000,0.180000,0.174656,-0.231294,0.167563,-0.058057,-0.360093,0.163113,0.000000,0.000000,
384257168,-0.320989,11.520739,1,-0.116333,0.021790,-0.012634,0.992920,-0.140000,0.120000,0.230000,0.174378,-0.088912,0.220443,-0.212474,-0.500965,0.219811,0.000000,0.000000,
384269886,-0.140065,11.520739,1,-0.117371,0.021851,-0.012634,0.992798,0.040000,0.230000,0.180000,0.022953,-0.236554,0.174438,-0.177075,-0.460776,0.174938,0.000000,0.000000,
384278137,0.041362,11.520739,1,-0.118469,0.021912,-0.012634,0.992615,0.200000,0.330000,0.290000,-0.103265,-0.373521,0.287740,-0.054802,-0.317835,0.286497,0.000000,0.000000,
384286864,-0.140065,11.520739,1,-0.119751,0.021912,-0.012756,0.992493,0.030000,0.310000,0.150000,0.051385,-0.311182,0.141544,-0.106608,-0.363584,0.143141,0.000000,0.000000,
384299319,0.317073,11.516092,1,-0.120789,0.021912,-0.012817,0.992371,-0.040000,0.350000,0.060000,0.125303,-0.331293,0.047551,0.133162,-0.138229,0.048604,0.000000,0.000000,
384308146,-0.045796,11.516092,1,-0.121277,0.021912,-0.012878,0.992310,0.040000,0.370000,-0.050000,0.047728,-0.367655,-0.059744,0.028594,-0.254866,-0.058550,0.000000,0.000000,
384317033,0.128505,11.525386,1,-0.121582,0.021912,-0.012878,0.992249,0.040000,0.470000,-0.120000,0.068764,-0.463181,-0.132747,0.083852,-0.198096,-0.131929,0.000000,0.000000,
384329504,0.404216,11.520739,1,-0.121765,0.021912,-0.012878,0.992249,-0.090000,0.310000,-0.370000,0.144735,-0.271443,-0.382730,0.266259,-0.024831,-0.379966,0.000000,0.000000,
384338058,0.498500,11.516092,1,-0.121582,0.021790,-0.012695,0.992249,0.010000,0.370000,-0.490000,0.056673,-0.351593,-0.500257,0.400197,0.126532,-0.498932,0.000000,0.000000,
384350741,-0.320989,11.520739,1,-0.120972,0.021973,-0.012695,0.992310,0.030000,0.360000,-0.440000,0.036600,-0.347788,-0.449201,-0.015139,-0.302373,-0.449749,0.000000,0.000000,
384358912,-0.140065,11.520739,1,-0.120972,0.021973,-0.012695,0.992310,-0.250000,0.050000,-0.090000,0.250195,0.013433,-0.101544,-0.089825,-0.390168,-0.105381,0.000000,0.000000,
384367758,-0.226705,11.516092,1,-0.120544,0.022095,-0.012817,0.992371,-0.010000,-0.100000,-0.140000,-0.020741,0.102271,-0.137148,-0.172099,-0.471901,-0.136798,0.000000,0.000000,
384380452,0.404216,11.520739,1,-0.120239,0.022278,-0.012939,0.992432,0.100000,-0.020000,-0.230000,-0.112665,0.000168,-0.224963,0.154722,-0.146976,-0.223992,0.000000,0.000000,
384388418,0.041362,11.520739,1,-0.120239,0.022400,-0.013000,0.992432,-0.060000,0.500000,-0.290000,0.163449,-0.465147,-0.307686,0.088038,-0.228619,-0.306764,0.000000,0.000000,
384397322,0.317073,11.516092,1,-0.120239,0.022461,-0.013062,0.992432,-0.050000,0.520000,-0.300000,0.157990,-0.486723,-0.317957,0.217857,-0.096766,-0.317834,0.000000,0.000000,
384409761,0.222789,11.520739,1,-0.119934,0.022522,-0.013062,0.992432,0.100000,-0.010000,-0.200000,-0.108960,-0.010051,-0.195259,0.219487,-0.096353,-0.196609,0.000000,0.000000,
384418076,0.309932,11.525386,1,-0.119202,0.022522,-0.013062,0.992554,0.070000,0.030000,-0.400000,-0.079994,-0.037522,-0.397485,0.270953,-0.036147,-0.395271,0.000000,0.000000,
384426991,0.585658,11.520739,1,-0.118225,0.022522,-0.012939,0.992676,-0.220000,0.080000,-0.520000,0.207541,-0.015390,-0.530944,0.451923,0.150487,-0.529448,0.000000,0.000000,
384439690,0.222789,11.520739,1,-0.117004,0.022461,-0.012756,0.992798,-0.330000,0.170000,-0.220000,0.349564,-0.084020,-0.238638,0.321379,0.011688,-0.241843,0.000000,0.000000,
384447805,0.948024,11.520739,1,-0.116028,0.022278,-0.012573,0.992920,0.160000,0.360000,0.360000,-0.055812,-0.394281,0.355291,0.683938,0.469870,0.348710,0.000000,0.000000,
384456689,0.404216,11.520739,1,-0.115173,0.022034,-0.012329,0.993042,0.190000,0.520000,-0.420000,-0.085696,-0.541494,-0.427062,0.526909,0.293675,-0.418513,0.000000,0.000000,
384469417,0.491374,11.525386,1,-0.113892,0.022034,-0.012024,0.993164,-0.320000,0.670000,-0.750000,0.427710,-0.565683,-0.781548,0.510039,0.262402,-0.777548,0.000000,0.000000,
384477946,-0.045796,11.516092,1,-0.111572,0.022339,-0.011841,0.993408,-0.650000,0.100000,-0.650000,0.624648,0.059011,-0.679152,0.190471,-0.154097,-0.680236,0.000000,0.000000,
384486534,0.222789,11.520739,1,-0.109741,0.022644,-0.011536,0.993652,0.750000,0.000000,-0.290000,-0.745001,-0.158752,-0.257774,0.207772,-0.135563,-0.262429,0.000000,0.000000,
384507157,-0.147206,11.530033,1,-0.107300,0.023132,-0.011169,0.993896,0.040000,0.260000,-0.080000,0.012414,-0.261123,-0.085214,-0.001991,-0.352242,-0.087167,0.000000,0.000000,
384516070,-0.320989,11.520739,1,-0.105652,0.023376,-0.010925,0.994080,-0.430000,-0.250000,1.560000,0.443668,0.308733,1.545596,-0.192606,-0.669087,1.527603,0.000000,0.000000,
384525350,0.505641,11.506798,1,-0.103394,0.023621,-0.010498,0.994324,1.240000,1.240000,0.880000,-0.914607,-1.482958,0.902435,0.206624,-0.115647,0.909324,0.000000,0.000000,
384538257,0.222789,11.520739,1,-0.100220,0.023743,-0.010376,0.994629,-0.380000,0.480000,0.040000,0.469370,-0.394947,0.010597,0.214518,-0.104355,0.020501,0.000000,0.000000,
384547144,0.317073,11.516092,1,-0.096741,0.023682,-0.010376,0.994995,-0.220000,-0.110000,0.390000,0.213694,0.144122,0.382328,0.273126,-0.020390,0.378341,0.000000,0.000000,
384556026,0.222789,11.520739,1,-0.092163,0.023621,-0.010132,0.995422,-0.490000,-0.480000,0.660000,0.425576,0.551468,0.648773,0.243897,-0.048697,0.645793,0.000000,0.000000,
384569174,0.215648,11.530033,1,-0.086975,0.023621,-0.009827,0.995911,-0.360000,-0.270000,0.730000,0.343137,0.317138,0.719117,0.226957,-0.057119,0.718309,0.000000,0.000000,
384577781,-0.052922,11.525386,1,-0.082764,0.023560,-0.009521,0.996216,-0.710000,-0.350000,0.730000,0.677261,0.451497,0.704853,0.064205,-0.268536,0.705001,0.000000,0.000000,
384586685,0.222789,11.520739,1,-0.080078,0.023376,-0.009399,0.996460,-0.430000,-0.030000,0.060000,0.422109,0.097522,0.041213,0.153363,-0.162451,0.048528,0.000000,0.000000,
384599404,0.404216,11.520739,1,-0.078003,0.023254,-0.009277,0.996643,0.140000,0.050000,-0.050000,-0.132785,-0.070468,-0.044757,0.296507,-0.004162,-0.043729,0.000000,0.000000,
384607604,0.498500,11.516092,1,-0.076111,0.023132,-0.009155,0.996765,-0.640000,-0.070000,-0.050000,0.618873,0.167285,-0.077036,0.413462,0.150119,-0.076669,0.000000,0.000000,
384616223,0.309932,11.525386,1,-0.074097,0.023254,-0.008972,0.996948,-0.250000,-0.260000,0.120000,0.214413,0.292419,0.114139,0.355059,0.083725,0.112036,0.000000,0.000000,
384629181,-0.052922,11.525386,1,-0.072021,0.023315,-0.008850,0.997070,-0.090000,-0.300000,-0.040000,0.044088,0.310350,-0.037718,0.120076,-0.169668,-0.036068,0.000000,0.000000,
384637745,0.672298,11.525386,1,-0.070496,0.023315,-0.008667,0.997192,-0.630000,-0.480000,-0.140000,0.549057,0.565928,-0.158477,0.438706,0.258003,-0.157128,0.000000,0.000000,
384646660,0.491374,11.525386,1,-0.069946,0.023315,-0.008545,0.997253,-0.640000,-0.210000,0.120000,0.609583,0.295811,0.095119,0.471416,0.294303,0.092340,0.000000,0.000000,
384659328,0.222789,11.520739,1,-0.070374,0.023315,-0.008606,0.997192,-0.740000,-0.560000,0.040000,0.655347,0.657931,0.017886,0.331178,0.134204,0.018707,0.000000,0.000000,
384667791,-0.328114,11.530033,1,-0.072083,0.023315,-0.008728,0.997070,-0.460000,-0.360000,0.120000,0.408817,0.420802,0.106519,-0.049813,-0.380126,0.105551,0.000000,0.000000,
384676726,-0.234349,11.525386,1,-0.075317,0.023315,-0.008972,0.996826,-0.510000,-0.200000,-0.190000,0.464582,0.277207,-0.208500,-0.159754,-0.506494,-0.205039,0.000000,0.000000,
384689457,-0.052922,11.525386,1,-0.079590,0.023254,-0.009277,0.996521,-0.200000,0.260000,-0.470000,0.215909,-0.217907,-0.484155,-0.104366,-0.443202,-0.481079,0.000000,0.000000,
384697917,-0.147206,11.530033,1,-0.084290,0.022888,-0.009888,0.996155,-0.330000,0.070000,-0.210000,0.326796,-0.010106,-0.225886,-0.132962,-0.478999,-0.228698,0.000000,0.000000,
384706802,0.404216,11.520739,1,-0.088745,0.022949,-0.010132,0.995728,-0.120000,0.050000,-0.190000,0.117766,-0.024877,-0.196242,0.172945,-0.114375,-0.196600,0.000000,0.000000,
384719548,0.766582,11.520739,1,-0.093079,0.023010,-0.010315,0.995361,-0.200000,-0.110000,-0.150000,0.168851,0.147671,-0.155857,0.515350,0.272209,-0.156306,0.000000,0.000000,
384727732,0.121364,11.534680,1,-0.097473,0.023193,-0.010437,0.994934,-0.130000,0.110000,-0.060000,0.145792,-0.081643,-0.068439,0.289187,-0.042953,-0.069408,0.000000,0.000000,
384736333,-0.328114,11.530033,1,-0.101929,0.023376,-0.010620,0.994446,-0.180000,0.170000,-0.120000,0.204593,-0.127877,-0.132222,-0.067405,-0.462096,-0.131530,0.000000,0.000000,
384749179,0.222789,11.520739,1,-0.106018,0.023621,-0.010742,0.994019,0.290000,0.130000,0.110000,-0.250399,-0.190112,0.119382,0.094698,-0.273570,0.116617,0.000000,0.000000,
384757756,-0.052922,11.525386,1,-0.110718,0.023804,-0.010925,0.993530,0.860000,1.320000,0.390000,-0.528914,-1.483507,0.392448,0.006738,-0.388761,0.389408,0.000000,0.000000,
384766643,-0.147206,11.530033,1,-0.115906,0.023865,-0.011292,0.992920,0.590000,1.100000,-0.100000,-0.325907,-1.204640,-0.104195,-0.085654,-0.497152,-0.098755,0.000000,0.000000,
384779384,-0.422399,11.534680,1,-0.120605,0.023804,-0.011597,0.992371,0.790000,1.870000,0.100000,-0.314601,-2.006535,0.081195,-0.287139,-0.721018,0.079212,0.000000,0.000000,
384787855,-0.241490,11.534680,1,-0.123169,0.023804,-0.011780,0.992004,0.590000,1.250000,0.090000,-0.262099,-1.357682,0.079481,-0.266760,-0.683244,0.079478,0.000000,0.000000,
384796730,0.128505,11.525386,1,-0.124084,0.023682,-0.012085,0.991943,-0.560000,-0.930000,-0.100000,0.308786,1.041178,-0.096726,-0.044482,-0.407260,-0.094785,0.000000,0.000000,
384809486,0.846599,11.534680,1,-0.123230,0.023499,-0.012390,0.992004,2.290000,2.460000,-0.110000,-1.623209,-2.943502,-0.084794,0.466788,0.189581,-0.084904,0.000000,0.000000,
384817600,0.121364,11.534680,1,-0.121765,0.023254,-0.012756,0.992188,-1.150000,-0.600000,-0.840000,0.928585,0.877032,-0.869727,0.267962,-0.100217,-0.861078,0.000000,0.000000,
384830354,-0.241490,11.534680,1,-0.119629,0.023315,-0.012634,0.992432,0.220000,-0.050000,-0.770000,-0.263240,0.011193,-0.757868,-0.028920,-0.461722,-0.759005,0.000000,0.000000,
384838722,0.766582,11.520739,1,-0.117249,0.023499,-0.012329,0.992737,-0.520000,0.040000,-0.600000,0.484666,0.093849,-0.623112,0.428905,0.191682,-0.624610,0.000000,0.000000,
384847562,-0.241490,11.534680,1,-0.116455,0.023438,-0.012268,0.992859,0.090000,-0.300000,-0.250000,-0.169016,0.275652,-0.236773,0.043263,-0.283599,-0.241047,0.000000,0.000000,
384860294,-0.241490,11.534680,1,-0.116394,0.023193,-0.012146,0.992859,0.310000,0.060000,0.520000,-0.262015,-0.139915,0.530917,-0.125363,-0.469151,0.522410,0.000000,0.000000,
384868659,-0.241490,11.534680,1,-0.116272,0.022888,-0.011963,0.992859,-0.470000,0.520000,0.280000,0.590037,-0.402133,0.244452,-0.196662,-0.562803,0.247515,0.000000,0.000000,
384877610,0.483729,11.534680,1,-0.114990,0.022766,-0.011841,0.993042,-0.800000,0.620000,0.020000,0.920256,-0.420677,-0.031847,0.191439,-0.082542,-0.028768,0.000000,0.000000,
384890394,0.215648,11.530033,1,-0.114075,0.022827,-0.011902,0.993164,0.120000,-0.530000,-0.510000,-0.261078,0.498255,-0.488919,0.204381,-0.072253,-0.483848,0.000000,0.000000,
384898078,-0.052922,11.525386,1,-0.113464,0.022949,-0.011841,0.993225,0.720000,-1.010000,-0.320000,-0.943300,0.826973,-0.259669,0.054620,-0.288376,-0.262139,0.000000,0.000000,
384906967,-0.422399,11.534680,1,-0.113220,0.023010,-0.011841,0.993225,-1.300000,1.220000,0.110000,1.544298,-0.897270,0.018864,-0.223283,-0.614253,0.015768,0.000000,0.000000,
384919712,0.215648,11.530033,1,-0.112976,0.023010,-0.011841,0.993286,0.000000,-0.080000,0.460000,0.004347,0.069515,0.461682,0.023302,-0.313127,0.456768,0.000000,0.000000,
384928023,0.027080,11.539327,1,-0.113953,0.023010,-0.011841,0.993164,-0.390000,0.280000,0.630000,0.473201,-0.195692,0.604329,0.022913,-0.304961,0.602703,0.000000,0.000000,
384936916,0.034221,11.530033,1,-0.115234,0.023071,-0.011963,0.992981,-0.080000,0.040000,0.280000,0.100518,-0.025735,0.275014,0.026745,-0.294472,0.278625,0.000000,0.000000,
384949421,0.215648,11.530033,1,-0.116455,0.023254,-0.012207,0.992859,0.350000,0.090000,0.470000,-0.296342,-0.177518,0.481849,0.132611,-0.158740,0.479610,0.000000,0.000000,
384957873,0.404216,11.520739,1,-0.117920,0.023315,-0.012329,0.992676,0.260000,-0.410000,0.120000,-0.342337,0.335182,0.143403,0.288892,0.067620,0.147107,0.000000,0.000000,
384966786,-0.328114,11.530033,1,-0.118774,0.023315,-0.012329,0.992554,-0.070000,0.630000,-0.260000,0.203328,-0.590522,-0.281581,-0.067134,-0.378180,-0.276857,0.000000,0.000000,
384987341,0.491374,11.525386,1,-0.119812,0.023132,-0.012329,0.992432,0.480000,0.130000,0.300000,-0.420168,-0.246320,0.316307,0.252123,0.015060,0.309770,0.000000,0.000000,
384996230,0.222789,11.520739,1,-0.119507,0.023315,-0.012268,0.992493,0.100000,0.420000,0.050000,0.004814,-0.432610,0.041697,0.234936,-0.018689,0.044651,0.000000,0.000000,
385005438,0.309932,11.525386,1,-0.119202,0.023438,-0.012329,0.992493,0.080000,0.330000,-0.280000,-0.013589,-0.334177,-0.286041,0.278412,0.043956,-0.282396,0.000000,0.000000,
385018268,0.578013,11.530033,1,-0.119019,0.023376,-0.012268,0.992554,-0.390000,0.540000,-0.140000,0.498912,-0.429569,-0.172919,0.453360,0.269979,-0.174126,0.000000,0.000000,
385026867,0.853740,11.525386,1,-0.118591,0.023376,-0.012268,0.992615,0.060000,-0.230000,0.110000,-0.106844,0.207253,0.119333,0.688514,0.617646,0.116100,0.000000,0.000000,
385035748,0.215648,11.530033,1,-0.118164,0.023254,-0.012207,0.992676,-0.060000,-0.200000,0.020000,0.012442,0.208113,0.023322,0.420484,0.270669,0.024344,0.000000,0.000000,
385049143,-0.052922,11.525386,1,-0.118225,0.023376,-0.012329,0.992615,-0.030000,-0.140000,-0.100000,-0.008584,0.144986,-0.096965,0.149278,-0.058079,-0.095628,0.000000,0.000000,
385057798,0.578013,11.530033,1,-0.118347,0.023376,-0.012329,0.992615,-0.320000,0.140000,-0.080000,0.339545,-0.059150,-0.098006,0.398051,0.310491,-0.097980,0.000000,0.000000,
385066388,0.215648,11.530033,1,-0.118164,0.023376,-0.012268,0.992676,-0.370000,0.080000,0.010000,0.378526,0.009073,-0.008504,0.295246,0.176170,-0.009490,0.000000,0.000000,
385079270,-0.052922,11.525386,1,-0.118103,0.023315,-0.012207,0.992676,-0.010000,0.430000,-0.030000,0.108816,-0.415004,-0.043182,0.095618,-0.061671,-0.042810,0.000000,0.000000,
385087864,-0.234349,11.525386,1,-0.118347,0.023315,-0.012207,0.992615,0.220000,0.130000,-0.090000,-0.187547,-0.176444,-0.084196,-0.096540,-0.339029,-0.083740,0.000000,0.000000,
385096719,0.034221,11.530033,1,-0.118347,0.023376,-0.012207,0.992615,-0.060000,0.150000,0.000000,0.093408,-0.131618,-0.007076,-0.023943,-0.244241,-0.007921,0.000000,0.000000,
385109474,-0.052922,11.525386,1,-0.118225,0.023376,-0.012146,0.992615,-0.120000,0.480000,-0.060000,0.225932,-0.437050,-0.079368,-0.043873,-0.265244,-0.078581,0.000000,0.000000,
385117957,0.034221,11.530033,1,-0.118408,0.023376,-0.012146,0.992615,-0.120000,0.400000,-0.030000,0.208825,-0.359831,-0.047042,-0.000781,-0.200118,-0.047389,0.000000,0.000000,
385126861,0.222789,11.520739,1,-0.118958,0.023315,-0.012085,0.992554,0.070000,0.060000,0.010000,-0.053317,-0.075039,0.011253,0.126682,-0.038449,0.010606,0.000000,0.000000,
385139650,-0.241490,11.534680,1,-0.119385,0.023315,-0.012024,0.992493,0.090000,0.060000,0.080000,-0.069216,-0.081113,0.082031,-0.087366,-0.292394,0.081244,0.000000,0.000000,
385147814,-0.603810,11.534680,1,-0.119568,0.023315,-0.012024,0.992493,-0.100000,0.260000,-0.010000,0.158108,-0.228531,-0.021982,-0.389526,-0.728445,-0.020844,0.000000,0.000000,
385156668,-0.335759,11.539327,1,-0.119568,0.023254,-0.012024,0.992493,-0.150000,0.330000,-0.140000,0.216829,-0.282237,-0.156012,-0.364915,-0.691494,-0.154523,0.000000,0.000000,
385169461,0.397090,11.530033,1,-0.119446,0.023254,-0.011963,0.992493,-0.080000,0.270000,-0.060000,0.138555,-0.242111,-0.071293,0.068138,-0.168041,-0.072211,0.000000,0.000000,
385177885,-0.509541,11.530033,1,-0.119080,0.023193,-0.011902,0.992554,-0.060000,0.170000,0.060000,0.101261,-0.152008,0.052371,-0.268713,-0.655672,0.050998,0.000000,0.000000,
385186632,-0.241490,11.534680,1,-0.118591,0.023193,-0.011841,0.992615,-0.130000,0.140000,-0.050000,0.156651,-0.104452,-0.059614,-0.258715,-0.636432,-0.058395,0.000000,0.000000,
385199333,0.491374,11.525386,1,-0.118164,0.023132,-0.011780,0.992676,-0.200000,0.390000,-0.100000,0.280627,-0.330213,-0.119747,0.168175,-0.119873,-0.119071,0.000000,0.000000,
385207886,-0.241490,11.534680,1,-0.117981,0.023071,-0.011719,0.992676,-0.190000,0.360000,0.040000,0.270578,-0.305981,0.021433,-0.070754,-0.465594,0.019885,0.000000,0.000000,
385216801,0.215648,11.530033,1,-0.118103,0.022888,-0.011658,0.992676,0.010000,0.160000,0.070000,0.031094,-0.159089,0.065766,0.090715,-0.255164,0.065261,0.000000,0.000000,
385229584,-0.060063,11.534680,1,-0.118347,0.022705,-0.011536,0.992676,0.040000,0.180000,-0.070000,0.000009,-0.183124,-0.073305,-0.000043,-0.361968,-0.071778,0.000000,0.000000,
385238018,-0.052922,11.525386,1,-0.118469,0.022644,-0.011536,0.992615,-0.110000,0.150000,-0.040000,0.140084,-0.119109,-0.048832,-0.033813,-0.407565,-0.049085,0.000000,0.000000,
385246933,0.027080,11.539327,1,-0.118347,0.022644,-0.011475,0.992615,-0.220000,0.070000,-0.020000,0.229039,-0.015861,-0.031236,-0.002236,-0.363206,-0.031433,0.000000,0.000000,
385264744,0.027080,11.539327,1,-0.117859,0.022522,-0.011475,0.992737,-0.200000,-0.090000,-0.010000,0.172775,0.134565,-0.015861,0.008407,-0.342865,-0.016033,0.000000,0.000000,
385274574,-0.241490,11.534680,1,-0.117798,0.022400,-0.011536,0.992737,-0.150000,-0.010000,-0.070000,0.140061,0.046115,-0.075893,-0.141969,-0.609868,-0.075233,0.000000,0.000000,
385284097,0.121364,11.534680,1,-0.118103,0.022278,-0.011658,0.992676,-0.060000,0.220000,-0.100000,0.105037,-0.197909,-0.108612,0.005603,-0.380113,-0.108244,0.000000,0.000000,
385294659,0.034221,11.530033,1,-0.118713,0.022156,-0.011658,0.992615,-0.050000,0.670000,0.020000,0.207032,-0.639487,-0.001116,0.018211,-0.357682,-0.002297,0.000000,0.000000,
385304066,-0.147206,11.530033,1,-0.119385,0.022034,-0.011597,0.992554,0.110000,0.630000,-0.040000,0.040357,-0.637332,-0.053261,-0.081111,-0.488796,-0.052699,0.000000,0.000000,
385316325,-0.509541,11.530033,1,-0.119812,0.022034,-0.011597,0.992493,0.170000,0.350000,-0.030000,-0.083295,-0.379854,-0.032905,-0.336043,-0.807746,-0.033123,0.000000,0.000000,
385325266,0.302806,11.534680,1,-0.119812,0.022034,-0.011597,0.992493,0.010000,0.090000,-0.040000,0.009794,-0.089069,-0.042088,0.027972,-0.268611,-0.041989,0.000000,0.000000,
385335032,-0.328114,11.530033,1,-0.119385,0.022034,-0.011597,0.992554,-0.100000,0.080000,-0.050000,0.113653,-0.053065,-0.056298,-0.180926,-0.535094,-0.056140,0.000000,0.000000,
385347103,-0.060063,11.534680,1,-0.118896,0.022034,-0.011536,0.992615,0.030000,0.270000,-0.010000,0.034003,-0.269235,-0.016356,-0.117185,-0.445676,-0.016794,0.000000,0.000000,
385355716,0.041362,11.520739,1,-0.118591,0.022034,-0.011536,0.992615,-0.040000,-0.020000,-0.060000,0.031346,0.029929,-0.061003,-0.028971,-0.313539,-0.060516,0.000000,0.000000,
385365077,-0.328114,11.530033,1,-0.118347,0.022034,-0.011536,0.992676,0.060000,0.240000,0.040000,-0.000137,-0.248063,0.035663,-0.204978,-0.531753,0.034603,0.000000,0.000000,
385377203,-0.060063,11.534680,1,-0.118225,0.022034,-0.011536,0.992676,-0.100000,0.130000,0.020000,0.128484,-0.103163,0.012219,-0.127339,-0.427456,0.012466,0.000000,0.000000,
385386088,0.483729,11.534680,1,-0.118225,0.022034,-0.011536,0.992676,-0.260000,0.270000,-0.060000,0.312928,-0.200160,-0.078180,0.223694,0.079895,-0.077182,0.000000,0.000000,
385395429,0.215648,11.530033,1,-0.118225,0.022034,-0.011536,0.992676,-0.110000,0.440000,-0.050000,0.207547,-0.400824,-0.066819,0.219781,0.073306,-0.066934,0.000000,0.000000,
385407148,0.034221,11.530033,1,-0.118103,0.021912,-0.011475,0.992676,0.010000,0.240000,0.030000,0.047829,-0.236103,0.023662,0.113004,-0.060689,0.022663,0.000000,0.000000,
385416040,0.483729,11.534680,1,-0.117859,0.021912,-0.011475,0.992737,0.120000,0.270000,-0.040000,-0.055361,-0.289880,-0.042601,0.327601,0.242158,-0.041882,0.000000,0.000000,
385425349,-0.154332,11.539327,1,-0.117493,0.021912,-0.011414,0.992798,0.060000,0.240000,-0.090000,-0.006580,-0.245793,-0.094115,0.050982,-0.114028,-0.093540,0.000000,0.000000,
385437234,0.302806,11.534680,1,-0.117126,0.021912,-0.011414,0.992798,-0.160000,-0.140000,0.000000,0.122960,0.173406,-0.002642,0.195717,0.067780,-0.003644,0.000000,0.000000,
385446024,-0.154332,11.539327,1,-0.116760,0.021912,-0.011414,0.992859,-0.340000,-0.170000,-0.030000,0.289696,0.244851,-0.039128,-0.006864,-0.221788,-0.038737,0.000000,0.000000,
385455275,0.295161,11.543974,1,-0.116333,0.021912,-0.011414,0.992920,-0.350000,-0.290000,-0.010000,0.272902,0.363302,-0.016236,0.165835,0.000873,-0.016484,0.000000,0.000000,
385475146,-0.422399,11.534680,1,-0.116882,0.021912,-0.011414,0.992859,-0.320000,0.020000,-0.050000,0.313298,0.055858,-0.063564,-0.178776,-0.424624,-0.063045,0.000000,0.000000,
385484909,-0.060063,11.534680,1,-0.117981,0.021912,-0.011414,0.992737,-0.310000,-0.170000,-0.040000,0.259522,0.238714,-0.047871,-0.112742,-0.287575,-0.048039,0.000000,0.000000,
385494672,-0.690953,11.530033,1,-0.119263,0.021912,-0.011414,0.992554,0.110000,0.410000,0.010000,-0.009440,-0.424499,0.003041,-0.453038,-0.814189,0.002478,0.000000,0.000000,
385507166,-0.234349,11.525386,1,-0.120972,0.021912,-0.011475,0.992371,0.240000,0.630000,-0.090000,-0.085986,-0.667624,-0.097806,-0.335710,-0.638924,-0.096701,0.000000,0.000000,
385516050,-0.147206,11.530033,1,-0.122498,0.021912,-0.011536,0.992188,0.210000,0.580000,-0.040000,-0.064677,-0.612955,-0.047804,-0.231684,-0.474050,-0.048343,0.000000,0.000000,
385525279,-0.060063,11.534680,1,-0.123413,0.021973,-0.011536,0.992065,0.310000,0.440000,-0.020000,-0.193693,-0.502232,-0.019800,-0.136671,-0.344674,-0.020115,0.000000,0.000000,
385537117,0.309932,11.525386,1,-0.123840,0.022034,-0.011536,0.992004,0.230000,0.350000,0.050000,-0.134589,-0.396690,0.049415,0.118331,-0.022989,0.048649,0.000000,0.000000,
385546020,0.121364,11.534680,1,-0.124023,0.022034,-0.011597,0.991943,0.170000,0.270000,-0.020000,-0.099226,-0.303160,-0.020721,0.119885,-0.020707,-0.019956,0.000000,0.000000,
385555308,-0.241490,11.534680,1,-0.123840,0.022034,-0.011597,0.992004,0.070000,0.170000,-0.030000,-0.027504,-0.181458,-0.031943,-0.089383,-0.285099,-0.031811,0.000000,0.000000,
385567163,0.034221,11.530033,1,-0.123474,0.022034,-0.011597,0.992065,-0.180000,0.080000,0.020000,0.194848,-0.033710,0.010345,-0.021079,-0.196837,0.009881,0.000000,0.000000,
385576012,-0.060063,11.534680,1,-0.123108,0.022034,-0.011536,0.992065,-0.310000,-0.070000,-0.020000,0.282289,0.144083,-0.030665,-0.045443,-0.228864,-0.030219,0.000000,0.000000,
385585281,-0.241490,11.534680,1,-0.122803,0.022034,-0.011536,0.992126,-0.380000,-0.160000,-0.060000,0.326481,0.248973,-0.070935,-0.160982,-0.372729,-0.070486,0.000000,0.000000,
385597202,0.034221,11.530033,1,-0.122681,0.022034,-0.011536,0.992126,-0.450000,-0.150000,-0.030000,0.398169,0.255737,-0.044119,-0.052213,-0.233892,-0.044410,0.000000,0.000000,
385606029,-0.422399,11.534680,1,-0.122925,0.022034,-0.011536,0.992126,-0.190000,0.070000,0.030000,0.202525,-0.021956,0.020213,-0.269113,-0.537230,0.019501,0.000000,0.000000,
385615261,-0.422399,11.534680,1,-0.123474,0.022034,-0.011597,0.992065,-0.030000,0.220000,0.020000,0.083776,-0.206245,0.012490,-0.362752,-0.649536,0.012568,0.000000,0.000000,
385627241,0.215648,11.530033,1,-0.124268,0.022034,-0.011597,0.991943,0.130000,0.190000,-0.050000,-0.081448,-0.215325,-0.050042,-0.035041,-0.236428,-0.049352,0.000000,0.000000,
385636109,-0.335759,11.539327,1,-0.124939,0.021973,-0.011597,0.991882,0.280000,0.430000,0.030000,-0.163270,-0.486575,0.029103,-0.211698,-0.484267,0.028239,0.000000,0.000000,
385645448,-0.422399,11.534680,1,-0.125366,0.021973,-0.011597,0.991821,0.310000,0.500000,-0.010000,-0.176362,-0.561267,-0.011634,-0.338156,-0.640034,-0.011194,0.000000,0.000000,
385657170,0.027080,11.539327,1,-0.125610,0.021973,-0.011597,0.991760,0.060000,0.210000,-0.060000,-0.008622,-0.217241,-0.063475,-0.133806,-0.376518,-0.062899,0.000000,0.000000,
385666049,0.121364,11.534680,1,-0.125488,0.021973,-0.011597,0.991760,-0.200000,0.050000,0.000000,0.205909,0.001477,-0.009560,0.010932,-0.167535,-0.010148,0.000000,0.000000,
385675325,-0.161473,11.548622,1,-0.125183,0.021973,-0.011597,0.991821,-0.300000,-0.030000,0.000000,0.282872,0.103700,-0.011350,-0.090382,-0.294919,-0.011336,0.000000,0.000000,
385687181,0.208522,11.539327,1,-0.125061,0.021973,-0.011597,0.991821,-0.350000,0.150000,-0.030000,0.374431,-0.057727,-0.048478,0.079511,-0.079652,-0.048068,0.000000,0.000000,
385696067,0.302806,11.534680,1,-0.125305,0.021973,-0.011597,0.991821,-0.120000,0.170000,-0.030000,0.156896,-0.134212,-0.039691,0.208420,0.104499,-0.039784,0.000000,0.000000,
385707596,0.208522,11.539327,1,-0.125793,0.021973,-0.011597,0.991760,0.060000,0.370000,0.000000,0.034085,-0.373214,-0.008116,0.209684,0.104479,-0.008465,0.000000,0.000000,
385716478,-0.060063,11.534680,1,-0.126404,0.021973,-0.011658,0.991699,0.120000,0.490000,0.020000,0.007462,-0.504769,0.010800,0.054064,-0.116974,0.010587,0.000000,0.000000,
385725598,0.389445,11.539327,1,-0.126709,0.021973,-0.011658,0.991638,0.180000,0.370000,0.020000,-0.080332,-0.403711,0.016673,0.247036,0.131657,0.016606,0.000000,0.000000,
385737292,0.019954,11.548622,1,-0.126526,0.022034,-0.011658,0.991638,0.060000,0.100000,-0.010000,-0.033442,-0.111678,-0.010412,0.116900,-0.031558,-0.010115,0.000000,0.000000,
385746169,0.201381,11.548622,1,-0.125977,0.022095,-0.011597,0.991699,-0.030000,0.070000,0.010000,0.046938,-0.060417,0.006761,0.165643,0.037777,0.006575,0.000000,0.000000,
385755441,-0.154332,11.539327,1,-0.125366,0.022095,-0.011597,0.991821,0.030000,0.160000,0.010000,0.011144,-0.162594,0.006648,-0.019165,-0.199441,0.006647,0.000000,0.000000,
385767316,0.389445,11.539327,1,-0.125000,0.022095,-0.011597,0.991821,0.010000,0.370000,-0.050000,0.079541,-0.359917,-0.060084,0.215532,0.096705,-0.059348,0.000000,0.000000,
385776238,0.027080,11.539327,1,-0.124939,0.022095,-0.011597,0.991821,-0.090000,0.290000,-0.050000,0.156479,-0.257609,-0.061894,0.106971,-0.060804,-0.061866,0.000000,0.000000,
385785407,0.302806,11.534680,1,-0.125061,0.022095,-0.011597,0.991821,-0.480000,-0.010000,0.020000,0.462949,0.128657,0.000615,0.219758,0.086074,-0.000073,0.000000,0.000000,
385797301,0.476588,11.543974,1,-0.125122,0.022095,-0.011597,0.991821,-0.420000,-0.060000,0.000000,0.391568,0.162562,-0.015477,0.369791,0.272514,-0.015307,0.000000,0.000000,
385806169,-0.161473,11.548622,1,-0.125427,0.022095,-0.011597,0.991760,-0.350000,-0.060000,-0.070000,0.320438,0.146566,-0.082521,0.063741,-0.171872,-0.081780,0.000000,0.000000,
385815416,0.208522,11.539327,1,-0.126038,0.022095,-0.011597,0.991699,-0.040000,0.220000,-0.010000,0.093104,-0.202746,-0.017909,0.145952,-0.063515,-0.018613,0.000000,0.000000,
385827225,-0.335759,11.539327,1,-0.126770,0.022156,-0.011597,0.991638,0.000000,0.380000,0.050000,0.097688,-0.368585,0.039063,-0.134296,-0.415116,0.038428,0.000000,0.000000,
385836111,0.578013,11.530033,1,-0.127563,0.022156,-0.011658,0.991516,0.210000,0.450000,0.070000,-0.086076,-0.489689,0.065568,0.275587,0.179833,0.065268,0.000000,0.000000,
385845390,-0.067189,11.543974,1,-0.128235,0.022156,-0.011658,0.991455,0.190000,0.470000,0.020000,-0.063379,-0.503225,0.014219,0.078838,-0.077461,0.014781,0.000000,0.000000,
385857259,0.382304,11.548622,1,-0.128418,0.022156,-0.011658,0.991394,0.450000,0.830000,-0.010000,-0.224257,-0.917006,-0.015475,0.254029,0.145040,-0.015141,0.000000,0.000000,
385866172,0.208522,11.539327,1,-0.128296,0.022156,-0.011658,0.991394,0.400000,0.850000,0.010000,-0.170142,-0.923835,0.001883,0.228894,0.106860,0.001696,0.000000,0.000000,
385875422,0.483729,11.534680,1,-0.128052,0.022156,-0.011658,0.991455,0.050000,0.520000,-0.040000,0.081579,-0.514837,-0.052873,0.377410,0.298783,-0.052272,0.000000,0.000000,
385887287,-0.422399,11.534680,1,-0.127197,0.022156,-0.011658,0.991577,-0.150000,0.200000,0.000000,0.195355,-0.155571,-0.011897,-0.083217,-0.289232,-0.012342,0.000000,0.000000,
385895879,0.027080,11.539327,1,-0.125793,0.022156,-0.011597,0.991760,-0.390000,-0.320000,0.010000,0.298092,0.407147,0.003131,-0.021676,-0.196480,0.002960,0.000000,0.000000,
385905228,-0.060063,11.534680,1,-0.124512,0.022217,-0.011658,0.991882,-0.590000,-0.610000,0.000000,0.420725,0.736912,-0.006808,-0.045727,-0.225042,-0.006701,0.000000,0.000000,
385917221,0.114238,11.543974,1,-0.123474,0.022217,-0.011597,0.992004,-0.610000,-0.460000,-0.020000,0.477343,0.595900,-0.032008,0.044420,-0.107858,-0.031729,0.000000,0.000000,
385926087,-0.154332,11.539327,1,-0.122925,0.022217,-0.011597,0.992126,-0.400000,-0.280000,-0.020000,0.318469,0.369615,-0.028496,-0.071987,-0.276523,-0.028531,0.000000,0.000000,
385935554,0.397090,11.530033,1,-0.123413,0.022217,-0.011597,0.992065,-0.120000,0.130000,-0.010000,0.147535,-0.096398,-0.018638,0.197052,0.078784,-0.018747,0.000000,0.000000,
385954432,-0.067189,11.543974,1,-0.125244,0.022278,-0.011658,0.991821,0.270000,0.450000,-0.050000,-0.152068,-0.502127,-0.051711,0.043713,-0.119619,-0.051348,0.000000,0.000000,
385964366,0.302806,11.534680,1,-0.125610,0.022339,-0.011658,0.991760,0.220000,0.540000,-0.010000,-0.079051,-0.577567,-0.016401,0.195554,0.176570,-0.016786,0.000000,0.000000,
385974278,-0.328114,11.530033,1,-0.125916,0.022339,-0.011658,0.991699,0.160000,0.530000,-0.030000,-0.024084,-0.552521,-0.038579,-0.108477,-0.305894,-0.038339,0.000000,0.000000,
385986735,0.034221,11.530033,1,-0.125916,0.022339,-0.011658,0.991699,0.110000,0.220000,-0.010000,-0.052037,-0.240299,-0.011761,-0.029033,-0.188212,-0.012054,0.000000,0.000000,
385995740,-0.060063,11.534680,1,-0.125732,0.022339,-0.011658,0.991760,0.170000,0.340000,-0.010000,-0.080322,-0.371490,-0.012725,-0.048800,-0.216045,-0.012717,0.000000,0.000000,
386005260,-0.422399,11.534680,1,-0.125793,0.022339,-0.011658,0.991760,0.150000,0.440000,-0.030000,-0.036978,-0.462977,-0.036403,-0.267437,-0.505539,-0.036142,0.000000,0.000000,
386017344,0.027080,11.539327,1,-0.125977,0.022339,-0.011719,0.991699,-0.160000,0.060000,0.020000,0.170659,-0.018367,0.011626,-0.102452,-0.285567,0.011099,0.000000,0.000000,
386026228,0.128505,11.525386,1,-0.125854,0.022339,-0.011658,0.991760,-0.230000,-0.160000,0.020000,0.183600,0.212094,0.015058,0.029190,-0.090445,0.015014,0.000000,0.000000,
386035547,-0.154332,11.539327,1,-0.125366,0.022339,-0.011658,0.991760,-0.280000,-0.200000,0.020000,0.222201,0.263057,0.014131,-0.077897,-0.227711,0.014141,0.000000,0.000000,
386047419,0.121364,11.534680,1,-0.125000,0.022339,-0.011658,0.991821,-0.220000,-0.150000,0.020000,0.176721,0.199577,0.015173,0.035025,-0.082482,0.015162,0.000000,0.000000,
386056017,0.121364,11.534680,1,-0.124817,0.022339,-0.011658,0.991882,-0.140000,-0.060000,-0.020000,0.119741,0.093208,-0.024049,0.084419,-0.011132,-0.023617,0.000000,0.000000,
386065440,-0.248616,11.543974,1,-0.124817,0.022339,-0.011658,0.991882,-0.110000,0.230000,-0.050000,0.160941,-0.194620,-0.061093,-0.108369,-0.255189,-0.060680,0.000000,0.000000,
386077402,0.302806,11.534680,1,-0.125061,0.022339,-0.011658,0.991821,-0.030000,0.230000,0.010000,0.086441,-0.215453,0.002142,0.127173,0.043516,0.001449,0.000000,0.000000,
386086265,0.121364,11.534680,1,-0.125427,0.022339,-0.011658,0.991760,0.050000,0.270000,0.000000,0.018660,-0.273873,-0.005687,0.124185,0.038623,-0.005608,0.000000,0.000000,
386095543,0.027080,11.539327,1,-0.125916,0.022339,-0.011658,0.991699,0.150000,0.480000,-0.020000,-0.026400,-0.501797,-0.027568,0.068339,-0.034046,-0.027326,0.000000,0.000000,
386107348,0.389445,11.539327,1,-0.126526,0.022278,-0.011719,0.991638,0.150000,0.430000,-0.010000,-0.037839,-0.453647,-0.016223,0.254233,0.199341,-0.016345,0.000000,0.000000,
386116223,0.302806,11.534680,1,-0.126953,0.022278,-0.011719,0.991577,0.060000,0.310000,0.030000,0.021297,-0.315572,0.023476,0.284200,0.239812,0.023038,0.000000,0.000000,
386125531,0.658031,11.543974,1,-0.126831,0.022278,-0.011719,0.991577,0.020000,0.200000,0.020000,0.031809,-0.198881,0.015021,0.502799,0.518572,0.015109,0.000000,0.000000,
386137441,0.027080,11.539327,1,-0.126282,0.022339,-0.011658,0.991699,-0.090000,0.000000,-0.010000,0.086576,0.022764,-0.013710,0.232917,0.171270,-0.013392,0.000000,0.000000,
386146262,-0.154332,11.539327,1,-0.125549,0.022339,-0.011658,0.991760,-0.190000,-0.100000,-0.030000,0.157547,0.144757,-0.034951,0.009583,-0.152684,-0.034714,0.000000,0.000000,
386155566,0.389445,11.539327,1,-0.124695,0.022339,-0.011658,0.991882,-0.300000,-0.080000,-0.010000,0.270160,0.152034,-0.020114,0.228027,0.130828,-0.020275,0.000000,0.000000,
386167457,0.389445,11.539327,1,-0.123901,0.022339,-0.011597,0.992004,-0.280000,0.030000,0.000000,0.278515,0.039901,-0.012461,0.323254,0.248708,-0.012548,0.000000,0.000000,
386176341,0.121364,11.534680,1,-0.123535,0.022339,-0.011597,0.992004,-0.210000,0.090000,-0.030000,0.223963,-0.035120,-0.041235,0.208228,0.079395,-0.040919,0.000000,0.000000,
386185570,-0.255757,11.553269,1,-0.123657,0.022339,-0.011597,0.992004,-0.150000,0.180000,-0.020000,0.188386,-0.137218,-0.031328,-0.059610,-0.269316,-0.031434,0.000000,0.000000,
386197370,-0.161473,11.548622,1,-0.124023,0.022339,-0.011597,0.991943,-0.110000,0.180000,0.030000,0.152110,-0.147804,0.020265,-0.121889,-0.343499,0.019695,0.000000,0.000000,
386206283,0.389445,11.539327,1,-0.124390,0.022339,-0.011597,0.991943,-0.090000,0.270000,0.030000,0.155041,-0.239870,0.018521,0.171937,0.083041,0.018534,0.000000,0.000000,
386215534,-0.067189,11.543974,1,-0.124695,0.022217,-0.011597,0.991882,0.000000,0.300000,-0.010000,0.073585,-0.290420,-0.018551,0.034285,-0.096925,-0.018142,0.000000,0.000000,
386227175,0.295161,11.543974,1,-0.125000,0.022217,-0.011597,0.991821,0.190000,0.280000,-0.030000,-0.115987,-0.317840,-0.030136,0.184500,0.093919,-0.030004,0.000000,0.000000,
386236043,0.397090,11.530033,1,-0.125061,0.022217,-0.011597,0.991821,0.130000,0.330000,-0.010000,-0.044574,-0.351716,-0.014060,0.308728,0.270062,-0.014236,0.000000,0.000000,
386245510,0.208522,11.539327,1,-0.124878,0.022217,-0.011597,0.991882,0.040000,0.380000,0.030000,0.056633,-0.378540,0.020759,0.253273,0.195211,0.020373,0.000000,0.000000,
386257415,-0.248616,11.543974,1,-0.124512,0.022217,-0.011597,0.991882,0.040000,0.290000,-0.020000,0.031825,-0.290459,-0.026603,-0.035785,-0.177548,-0.026086,0.000000,0.000000,
386266211,0.201381,11.548622,1,-0.123962,0.022217,-0.011597,0.991943,-0.140000,0.240000,-0.030000,0.193034,-0.197507,-0.042574,0.100393,0.022588,-0.042392,0.000000,0.000000,
386277870,0.114238,11.543974,1,-0.123474,0.022156,-0.011475,0.992004,-0.260000,0.010000,0.020000,0.255167,0.053788,0.009001,0.108696,0.033120,0.008434,0.000000,0.000000,
386286753,-0.154332,11.539327,1,-0.122986,0.022156,-0.011475,0.992126,-0.400000,-0.080000,0.030000,0.369479,0.174867,0.015764,-0.043749,-0.187491,0.015683,0.000000,0.000000,
386295803,-0.161473,11.548622,1,-0.122742,0.022156,-0.011475,0.992126,-0.300000,0.020000,-0.040000,0.293658,0.054519,-0.052858,-0.113580,-0.276777,-0.052103,0.000000,0.000000,
386307597,0.563746,11.548622,1,-0.122986,0.022156,-0.011475,0.992065,-0.010000,0.110000,0.020000,0.037408,-0.104532,0.016460,0.276056,0.215658,0.015704,0.000000,0.000000,
386316540,0.019954,11.548622,1,-0.123413,0.022095,-0.011475,0.992065,-0.010000,0.240000,0.020000,0.069266,-0.230540,0.012792,0.129285,0.001862,0.012824,0.000000,0.000000,
386325720,0.295161,11.543974,1,-0.123657,0.022217,-0.011475,0.992004,0.220000,0.320000,-0.040000,-0.136582,-0.363518,-0.039920,0.225322,0.126936,-0.039339,0.000000,0.000000,
386337559,-0.074330,11.553269,1,-0.123840,0.022156,-0.011475,0.992004,0.020000,0.310000,-0.020000,0.055705,-0.305008,-0.027911,0.052938,-0.093368,-0.028037,0.000000,0.000000,
386346199,0.114238,11.543974,1,-0.123901,0.022156,-0.011475,0.992004,-0.070000,0.070000,-0.020000,0.084025,-0.050250,-0.024831,0.087716,-0.042013,-0.024866,0.000000,0.000000,
386355449,0.201381,11.548622,1,-0.123779,0.022156,-0.011475,0.992004,-0.080000,0.250000,-0.030000,0.137336,-0.222076,-0.040315,0.153101,0.042438,-0.040144,0.000000,0.000000,
386367465,0.019954,11.548622,1,-0.123901,0.022156,-0.011475,0.992004,-0.110000,0.300000,-0.060000,0.177311,-0.262605,-0.072925,0.076327,-0.056148,-0.072563,0.000000,0.000000,
386376350,0.114238,11.543974,1,-0.124451,0.022095,-0.011475,0.991943,0.050000,0.470000,-0.060000,0.064593,-0.466708,-0.071161,0.097849,-0.024558,-0.071176,0.000000,0.000000,
386385667,-0.067189,11.543974,1,-0.125000,0.022034,-0.011414,0.991821,-0.090000,0.470000,0.010000,0.203859,-0.432953,-0.006919,0.002050,-0.150258,-0.007627,0.000000,0.000000,
386397439,0.027080,11.539327,1,-0.125366,0.022034,-0.011414,0.991821,-0.120000,0.120000,0.020000,0.146834,-0.086647,0.011694,0.014811,-0.131509,0.011481,0.000000,0.000000,
386406313,0.476588,11.543974,1,-0.125305,0.022034,-0.011414,0.991821,-0.280000,-0.010000,-0.030000,0.267073,0.079935,-0.041118,0.281823,0.257824,-0.040539,0.000000,0.000000,
386415599,0.745173,11.548622,1,-0.124939,0.022034,-0.011414,0.991821,-0.060000,-0.070000,-0.030000,0.039351,0.083202,-0.030444,0.552490,0.609095,-0.030555,0.000000,0.000000,
386440268,0.295161,11.543974,1,-0.124878,0.022034,-0.011414,0.991882,0.140000,0.200000,0.030000,-0.084667,-0.228993,0.030054,0.415706,0.418967,0.029386,0.000000,0.000000,
386448783,-0.516667,11.539327,1,-0.125183,0.022034,-0.011414,0.991821,0.100000,0.510000,-0.010000,0.029152,-0.518590,-0.020263,-0.137478,-0.868999,-0.019716,0.000000,0.000000,
386457697,0.027080,11.539327,1,-0.125549,0.022034,-0.011475,0.991760,0.090000,0.330000,-0.050000,-0.007386,-0.341086,-0.055601,-0.049117,-0.712446,-0.055205,0.000000,0.000000,
386468830,0.397090,11.530033,1,-0.125854,0.022034,-0.011475,0.991760,0.040000,0.350000,0.010000,0.048964,-0.349029,0.001713,0.202431,-0.358496,0.001086,0.000000,0.000000,
386477681,-0.241490,11.534680,1,-0.126038,0.022034,-0.011414,0.991699,-0.050000,0.230000,0.020000,0.106672,-0.210436,0.011450,-0.058379,-0.722188,0.011336,0.000000,0.000000,
386486568,0.295161,11.543974,1,-0.126038,0.021973,-0.011353,0.991699,-0.340000,0.050000,0.010000,0.341784,0.036599,-0.005259,0.139653,-0.462699,-0.005077,0.000000,0.000000,
386497872,0.034221,11.530033,1,-0.125854,0.021912,-0.011353,0.991760,-0.020000,0.150000,-0.010000,0.056256,-0.140048,-0.015005,0.073356,-0.536750,-0.014896,0.000000,0.000000,
386506593,0.034221,11.530033,1,-0.125854,0.021851,-0.011353,0.991760,0.010000,0.290000,0.020000,0.063500,-0.283600,0.012255,0.045997,-0.567583,0.011956,0.000000,0.000000,
386515586,-0.067189,11.543974,1,-0.125916,0.021790,-0.011353,0.991760,0.130000,0.130000,0.010000,-0.092902,-0.158559,0.011594,-0.024525,-0.648821,0.011598,0.000000,0.000000,
386527368,0.295161,11.543974,1,-0.125732,0.021790,-0.011353,0.991760,0.030000,0.330000,-0.030000,0.051731,-0.326467,-0.037992,0.153087,-0.425107,-0.037445,0.000000,0.000000,
386536262,0.302806,11.534680,1,-0.125610,0.021790,-0.011353,0.991760,0.030000,0.160000,-0.040000,0.008919,-0.161708,-0.043219,0.236169,-0.303616,-0.043156,0.000000,0.000000,
386545533,0.114238,11.543974,1,-0.125549,0.021729,-0.011292,0.991760,0.070000,0.220000,-0.020000,-0.013960,-0.230114,-0.023285,0.162803,-0.393798,-0.023504,0.000000,0.000000,
386557452,0.114238,11.543974,1,-0.125488,0.021729,-0.011292,0.991821,0.050000,-0.280000,0.020000,-0.117026,0.258332,0.029788,0.129937,-0.428555,0.029201,0.000000,0.000000,
386566304,0.208522,11.539327,1,-0.125366,0.021729,-0.011292,0.991821,-0.270000,0.170000,-0.030000,0.302086,-0.096837,-0.045571,0.171764,-0.363670,-0.044747,0.000000,0.000000,
386575580,-0.074330,11.553269,1,-0.125244,0.021667,-0.011292,0.991821,-0.260000,0.450000,0.050000,0.365463,-0.371888,0.026979,0.025966,-0.546591,0.026189,0.000000,0.000000,
386587370,0.201381,11.548622,1,-0.125305,0.021606,-0.011292,0.991821,0.170000,0.160000,-0.030000,-0.126184,-0.196765,-0.027609,0.121286,-0.419376,-0.027017,0.000000,0.000000,
386595991,-0.248616,11.543974,1,-0.125427,0.021484,-0.011230,0.991821,-0.090000,0.160000,-0.060000,0.124096,-0.131486,-0.067938,-0.096979,-0.726434,-0.067487,0.000000,0.000000,
386605360,0.476588,11.543974,1,-0.125427,0.021362,-0.011108,0.991821,-0.130000,-0.160000,0.030000,0.087419,0.186839,0.029202,0.228062,-0.304834,0.028136,0.000000,0.000000,
386617306,0.389445,11.539327,1,-0.125183,0.021240,-0.011108,0.991821,-0.270000,-0.220000,0.020000,0.207642,0.279870,0.015370,0.318068,-0.187108,0.015510,0.000000,0.000000,
386626190,-0.067189,11.543974,1,-0.124939,0.021118,-0.011230,0.991882,-0.360000,-0.080000,-0.070000,0.325530,0.168071,-0.081787,0.092683,-0.510438,-0.080715,0.000000,0.000000,
386635707,0.295161,11.543974,1,-0.125061,0.021118,-0.011230,0.991882,-0.300000,-0.100000,-0.090000,0.261589,0.172955,-0.098866,0.205065,-0.359382,-0.098666,0.000000,0.000000,
386647361,-0.618596,11.553269,1,-0.125732,0.021118,-0.011230,0.991760,0.010000,0.190000,0.090000,0.041644,-0.187959,0.085046,-0.277188,-0.969897,0.083022,0.000000,0.000000,
386656245,0.019954,11.548622,1,-0.126831,0.021118,-0.011230,0.991638,0.270000,0.530000,0.030000,-0.126668,-0.581371,0.025861,-0.113300,-0.722547,0.026491,0.000000,0.000000,
386665763,0.476588,11.543974,1,-0.127930,0.021118,-0.011292,0.991516,0.070000,0.290000,-0.030000,0.004436,-0.297741,-0.035297,0.221366,-0.280987,-0.034616,0.000000,0.000000,
386677564,0.027080,11.539327,1,-0.128662,0.021057,-0.011292,0.991394,-0.010000,0.470000,0.020000,0.130231,-0.452091,0.006519,0.105262,-0.425208,0.006066,0.000000,0.000000,
386686430,0.382304,11.548622,1,-0.129089,0.021057,-0.011292,0.991333,0.090000,0.590000,0.030000,0.065148,-0.593744,0.017045,0.262373,-0.192574,0.016924,0.000000,0.000000,
386695739,0.107097,11.553269,1,-0.129272,0.021057,-0.011292,0.991333,0.120000,0.410000,-0.020000,-0.011892,-0.426686,-0.026728,0.170689,-0.309619,-0.026247,0.000000,0.000000,
386707522,-0.248616,11.543974,1,-0.129028,0.021057,-0.011292,0.991333,0.130000,0.310000,-0.060000,-0.049069,-0.331876,-0.063507,-0.076294,-0.618829,-0.063097,0.000000,0.000000,
386716139,0.483729,11.534680,1,-0.128357,0.021118,-0.011292,0.991455,0.010000,0.270000,-0.010000,0.058482,-0.263432,-0.017108,0.243419,-0.150521,-0.017615,0.000000,0.000000,
386725583,-0.074330,11.553269,1,-0.127747,0.021179,-0.011230,0.991516,-0.180000,-0.020000,-0.040000,0.167111,0.065701,-0.046444,0.058105,-0.386442,-0.046126,0.000000,0.000000,
386737492,-0.067189,11.543974,1,-0.127197,0.021179,-0.011230,0.991577,-0.160000,-0.050000,-0.050000,0.139841,0.089648,-0.054823,-0.019229,-0.479548,-0.054727,0.000000,0.000000,
386746359,0.019954,11.548622,1,-0.126770,0.021179,-0.011230,0.991638,0.050000,0.260000,0.020000,0.017795,-0.264506,0.014748,-0.000723,-0.446342,0.013982,0.000000,0.000000,
386755663,0.019954,11.548622,1,-0.126587,0.021179,-0.011230,0.991638,0.020000,0.210000,-0.030000,0.031938,-0.207717,-0.034986,0.007094,-0.431038,-0.034446,0.000000,0.000000,
386767397,0.107097,11.553269,1,-0.126526,0.021179,-0.011230,0.991699,-0.380000,-0.070000,-0.040000,0.348204,0.163967,-0.052902,0.060068,-0.357793,-0.052699,0.000000,0.000000,
386776274,0.201381,11.548622,1,-0.126221,0.021179,-0.011230,0.991699,-0.170000,0.100000,0.010000,0.189857,-0.054313,0.000567,0.138943,-0.239418,-0.000020,0.000000,0.000000,
386785583,0.389445,11.539327,1,-0.125977,0.020996,-0.011292,0.991760,-0.100000,0.190000,0.000000,0.144130,-0.158896,-0.009141,0.281736,-0.050537,-0.009040,0.000000,0.000000,
386797239,0.295161,11.543974,1,-0.126099,0.020813,-0.011353,0.991760,-0.010000,0.220000,-0.040000,0.062831,-0.209773,-0.046448,0.288934,-0.041156,-0.046036,0.000000,0.000000,
386805886,0.382304,11.548622,1,-0.126404,0.020813,-0.011353,0.991699,0.000000,0.150000,-0.020000,0.036652,-0.144825,-0.024144,0.342767,0.036632,-0.024385,0.000000,0.000000,
386817565,0.288020,11.553269,1,-0.126953,0.020752,-0.011353,0.991638,0.100000,0.360000,0.010000,-0.005782,-0.373717,0.003814,0.311418,-0.004064,0.003503,0.000000,0.000000,
386826468,0.288020,11.553269,1,-0.127563,0.020691,-0.011353,0.991577,0.130000,0.300000,-0.010000,-0.050359,-0.322968,-0.013369,0.297795,-0.023805,-0.013183,0.000000,0.000000,
386835646,0.469462,11.553269,1,-0.128052,0.020691,-0.011292,0.991455,0.100000,0.270000,-0.030000,-0.029509,-0.285968,-0.033629,0.396949,0.105791,-0.033404,0.000000,0.000000,
386847445,-0.255757,11.553269,1,-0.128357,0.020630,-0.011292,0.991455,0.120000,0.510000,-0.020000,0.012745,-0.523333,-0.029537,0.019447,-0.374338,-0.029579,0.000000,0.000000,
386856341,-0.074330,11.553269,1,-0.128479,0.020630,-0.011230,0.991455,0.010000,0.260000,0.010000,0.056893,-0.254094,0.003201,-0.038340,-0.453178,0.002840,0.000000,0.000000,
386865640,-0.437169,11.553269,1,-0.128296,0.020630,-0.011169,0.991455,0.000000,0.040000,0.020000,0.011033,-0.039010,0.018880,-0.273470,-0.755356,0.018704,0.000000,0.000000,
386877410,0.288020,11.553269,1,-0.127808,0.020630,-0.011169,0.991516,-0.140000,0.160000,0.020000,0.176657,-0.119520,0.010263,0.043537,-0.338818,0.010356,0.000000,0.000000,
386886017,0.201381,11.548622,1,-0.127502,0.020630,-0.011169,0.991577,-0.150000,-0.060000,-0.040000,0.128111,0.096711,-0.044021,0.132249,-0.206098,-0.043422,0.000000,0.000000,
386895538,0.476588,11.543974,1,-0.127441,0.020508,-0.011169,0.991577,-0.310000,-0.210000,-0.040000,0.244958,0.282298,-0.045932,0.329615,0.050671,-0.045905,0.000000,0.000000,
386914387,0.107097,11.553269,1,-0.128357,0.020508,-0.011169,0.991455,-0.150000,0.020000,0.020000,0.150884,0.018573,0.013760,0.200211,-0.115392,0.013103,0.000000,0.000000,
386924140,1.115199,11.539327,1,-0.129639,0.020508,-0.011230,0.991272,0.180000,0.720000,0.020000,0.011801,-0.742263,0.006913,0.739363,0.934541,0.006981,0.000000,0.000000,
386933718,0.658031,11.543974,1,-0.130920,0.020508,-0.011292,0.991150,0.410000,0.730000,-0.010000,-0.206977,-0.811310,-0.014793,0.700859,0.859826,-0.014553,0.000000,0.000000,
386945263,-0.161473,11.548622,1,-0.130981,0.020508,-0.011292,0.991089,0.170000,0.410000,-0.030000,-0.059061,-0.439501,-0.034939,0.208672,0.158761,-0.034714,0.000000,0.000000,
386955112,-0.705220,11.548622,1,-0.130554,0.020508,-0.011292,0.991150,0.000000,0.320000,-0.030000,0.081359,-0.308480,-0.038843,-0.321615,-0.620911,-0.038798,0.000000,0.000000,
386965119,0.114238,11.543974,1,-0.130127,0.020508,-0.011230,0.991211,0.180000,0.080000,0.020000,-0.152273,-0.124123,0.024562,-0.074767,-0.273616,0.023864,0.000000,0.000000,
386977003,0.107097,11.553269,1,-0.129517,0.020569,-0.011230,0.991272,0.370000,0.400000,0.010000,-0.254271,-0.481781,0.012964,0.027761,-0.131695,0.013084,0.000000,0.000000,
386985877,0.570872,11.539327,1,-0.129089,0.020569,-0.011230,0.991333,0.090000,0.630000,-0.020000,0.073162,-0.631524,-0.033942,0.342212,0.331070,-0.033424,0.000000,0.000000,
386995416,0.563746,11.548622,1,-0.129089,0.020630,-0.011108,0.991333,-0.130000,0.040000,-0.010000,0.135326,-0.005154,-0.016027,0.473679,0.497944,-0.016219,0.000000,0.000000,
387007332,0.382304,11.548622,1,-0.128723,0.020691,-0.010925,0.991394,-0.350000,-0.350000,-0.010000,0.248476,0.427956,-0.013917,0.426556,0.429993,-0.013943,0.000000,0.000000,
387016206,0.476588,11.543974,1,-0.127747,0.020630,-0.010925,0.991516,-0.320000,-0.250000,-0.020000,0.245170,0.323301,-0.025442,0.459428,0.471746,-0.025315,0.000000,0.000000,
387025681,0.019954,11.548622,1,-0.127319,0.020630,-0.010864,0.991577,-0.250000,0.020000,-0.020000,0.245839,0.044215,-0.030051,0.209439,0.142315,-0.029998,0.000000,0.000000,
387037495,0.563746,11.548622,1,-0.127380,0.020630,-0.010864,0.991577,-0.060000,0.210000,0.000000,0.110956,-0.187950,-0.007917,0.416776,0.403623,-0.008160,0.000000,0.000000,
387046106,0.107097,11.553269,1,-0.127563,0.020630,-0.010925,0.991577,0.290000,0.390000,-0.010000,-0.182291,-0.450578,-0.009435,0.240510,0.145248,-0.009421,0.000000,0.000000,
387055575,0.201381,11.548622,1,-0.127869,0.020630,-0.010925,0.991516,0.380000,0.640000,0.030000,-0.203944,-0.715937,0.027209,0.219243,0.116689,0.026805,0.000000,0.000000,
387067488,0.107097,11.553269,1,-0.128052,0.020630,-0.010925,0.991516,0.280000,0.320000,-0.020000,-0.190366,-0.380358,-0.017930,0.155544,0.034229,-0.017437,0.000000,0.000000,
387076352,0.201381,11.548622,1,-0.127563,0.020630,-0.010925,0.991577,0.020000,0.320000,-0.010000,0.061038,-0.314441,-0.017844,0.182464,0.072478,-0.017840,0.000000,0.000000,
387085649,-0.255757,11.553269,1,-0.126709,0.020691,-0.010864,0.991638,0.030000,0.180000,-0.050000,0.013956,-0.180896,-0.053619,-0.070536,-0.256661,-0.053225,0.000000,0.000000,
387097446,0.382304,11.548622,1,-0.125854,0.020691,-0.010864,0.991760,-0.050000,-0.080000,0.020000,0.029311,0.089620,0.020203,0.189206,0.075287,0.019394,0.000000,0.000000,
387106319,-0.799504,11.553269,1,-0.125183,0.020691,-0.010864,0.991882,-0.160000,0.000000,-0.030000,0.153551,0.040296,-0.036099,-0.384159,-0.749350,-0.035488,0.000000,0.000000,
387115601,0.295161,11.543974,1,-0.124512,0.020691,-0.010803,0.991943,-0.170000,-0.010000,-0.020000,0.161243,0.052082,-0.026233,0.002096,-0.240438,-0.026335,0.000000,0.000000,
387127526,-0.980916,11.553269,1,-0.124023,0.020691,-0.010803,0.992004,-0.210000,0.000000,0.050000,0.205546,0.050952,0.041888,-0.571261,-0.960147,0.041136,0.000000,0.000000,
387136413,0.469462,11.553269,1,-0.123596,0.020691,-0.010803,0.992065,-0.210000,-0.040000,0.030000,0.194931,0.089873,0.022969,0.024612,-0.085222,0.023169,0.000000,0.000000,
387145672,0.658031,11.543974,1,-0.122986,0.020691,-0.010803,0.992126,-0.240000,0.100000,0.000000,0.256886,-0.038273,-0.011868,0.390512,0.392113,-0.011482,0.000000,0.000000,
387157497,0.382304,11.548622,1,-0.122314,0.020691,-0.010742,0.992188,-0.170000,0.000000,-0.080000,0.161253,0.042638,-0.086446,0.390380,0.385066,-0.085620,0.000000,0.000000,
387166346,-0.437169,11.553269,1,-0.122009,0.020508,-0.010803,0.992249,-0.110000,0.100000,-0.050000,0.128630,-0.069491,-0.056777,-0.086725,-0.308794,-0.057095,0.000000,0.000000,
387175608,-0.168614,11.557916,1,-0.122131,0.020386,-0.010864,0.992249,-0.090000,0.070000,-0.060000,0.101590,-0.045048,-0.065196,-0.136989,-0.370963,-0.065107,0.000000,0.000000,
387187224,0.012813,11.557916,1,-0.122559,0.020264,-0.010864,0.992188,0.020000,0.260000,0.010000,0.044165,-0.257159,0.003844,-0.054390,-0.260906,0.003084,0.000000,0.000000,
387196129,0.288020,11.553269,1,-0.123230,0.020203,-0.010925,0.992126,0.030000,0.370000,-0.030000,0.059959,-0.365543,-0.038710,0.142045,0.022943,-0.038249,0.000000,0.000000,
387205627,-0.074330,11.553269,1,-0.124207,0.020203,-0.010986,0.992004,0.140000,0.330000,-0.010000,-0.054828,-0.354151,-0.013609,0.016978,-0.139873,-0.013881,0.000000,0.000000,
387217450,0.469462,11.553269,1,-0.125061,0.020203,-0.011108,0.991882,0.020000,0.230000,0.000000,0.037600,-0.227721,-0.005485,0.278030,0.197463,-0.005577,0.000000,0.000000,
387226342,-0.255757,11.553269,1,-0.125366,0.020203,-0.011108,0.991821,-0.180000,0.090000,-0.020000,0.195664,-0.041958,-0.029130,-0.030251,-0.253625,-0.028870,0.000000,0.000000,
387235612,0.563746,11.548622,1,-0.125244,0.020203,-0.011108,0.991882,-0.220000,0.030000,-0.050000,0.218237,0.026553,-0.058965,0.311310,0.196054,-0.058633,0.000000,0.000000,
387247448,0.012813,11.557916,1,-0.124878,0.020203,-0.011108,0.991882,-0.170000,-0.040000,0.000000,0.154653,0.080929,-0.005258,0.140380,-0.024534,-0.005846,0.000000,0.000000,
387256049,0.295161,11.543974,1,-0.124573,0.020203,-0.011047,0.991943,-0.080000,0.210000,-0.030000,0.127972,-0.183118,-0.038614,0.230022,0.105622,-0.038253,0.000000,0.000000,
387265395,-0.074330,11.553269,1,-0.124573,0.020203,-0.011047,0.991943,0.020000,0.440000,-0.050000,0.087040,-0.430344,-0.061058,0.054870,-0.121766,-0.060807,0.000000,0.000000,
387277368,0.107097,11.553269,1,-0.125000,0.020203,-0.011108,0.991882,0.070000,0.550000,-0.030000,0.067098,-0.549542,-0.042255,0.083725,-0.083751,-0.042459,0.000000,0.000000,
387286223,0.201381,11.548622,1,-0.125549,0.020203,-0.011108,0.991821,0.110000,0.400000,-0.020000,-0.007862,-0.414399,-0.026721,0.151328,0.015963,-0.026894,0.000000,0.000000,
387295719,0.382304,11.548622,1,-0.125732,0.020203,-0.011108,0.991821,0.050000,0.250000,0.000000,0.013857,-0.254552,-0.004915,0.285256,0.191384,-0.005157,0.000000,0.000000,
387307395,0.832332,11.553269,1,-0.125610,0.020203,-0.011108,0.991821,-0.070000,0.130000,0.000000,0.100070,-0.108398,-0.006134,0.605114,0.601990,-0.006123,0.000000,0.000000,
387316310,0.193736,11.557916,1,-0.125366,0.020203,-0.011108,0.991821,-0.220000,-0.060000,-0.020000,0.197135,0.113242,-0.026556,0.371569,0.255174,-0.026331,0.000000,0.000000,
387325631,0.650889,11.553269,1,-0.124939,0.020203,-0.011108,0.991882,-0.240000,-0.060000,-0.030000,0.216168,0.118210,-0.037295,0.535684,0.467049,-0.037175,0.000000,0.000000,
387337468,0.193736,11.557916,1,-0.124512,0.020203,-0.011047,0.991943,-0.070000,0.130000,0.010000,0.100253,-0.108780,0.003873,0.342708,0.212851,0.003421,0.000000,0.000000,
387346378,-0.074330,11.553269,1,-0.124512,0.020203,-0.011047,0.991943,0.000000,0.260000,-0.040000,0.062395,-0.251192,-0.046964,0.102360,-0.140872,-0.046409,0.000000,0.000000,
387355656,0.099452,11.562563,1,-0.124878,0.020203,-0.011108,0.991882,-0.050000,0.250000,-0.030000,0.108930,-0.229201,-0.038604,0.099367,-0.143446,-0.038690,0.000000,0.000000,
387367488,0.107097,11.553269,1,-0.125244,0.020203,-0.011108,0.991882,-0.050000,0.330000,0.000000,0.130237,-0.307152,-0.010807,0.102156,-0.137832,-0.011114,0.000000,0.000000,
387376103,0.280879,11.562563,1,-0.125427,0.020142,-0.011047,0.991821,-0.020000,0.360000,0.010000,0.109189,-0.343747,-0.000462,0.204737,0.013594,-0.000580,0.000000,0.000000,
387394676,0.563746,11.548622,1,-0.125488,0.020203,-0.011047,0.991821,0.080000,0.200000,-0.050000,-0.029860,-0.212754,-0.052360,0.415258,0.281714,-0.051789,0.000000,0.000000,
387404641,0.201381,11.548622,1,-0.125244,0.020264,-0.011047,0.991882,-0.010000,0.130000,-0.040000,0.040201,-0.122740,-0.043841,0.291798,0.038217,-0.043928,0.000000,0.000000,
387413932,0.382304,11.548622,1,-0.125000,0.020325,-0.010986,0.991882,-0.100000,0.020000,-0.040000,0.100018,0.006140,-0.044252,0.344945,0.121203,-0.044249,0.000000,0.000000,
387424987,0.658031,11.543974,1,-0.124878,0.020264,-0.011047,0.991882,0.050000,0.170000,-0.010000,-0.006787,-0.176882,-0.012703,0.528372,0.372213,-0.013051,0.000000,0.000000,
387434658,0.469462,11.553269,1,-0.125000,0.020264,-0.011047,0.991882,0.130000,0.330000,0.030000,-0.042856,-0.352399,0.025931,0.497738,0.323696,0.025501,0.000000,0.000000,
387444617,-0.074330,11.553269,1,-0.125366,0.020264,-0.011047,0.991821,0.120000,0.350000,0.000000,-0.029238,-0.368780,-0.004957,0.169096,-0.121944,-0.004621,0.000000,0.000000,
387456752,-0.255757,11.553269,1,-0.125732,0.020264,-0.011047,0.991821,-0.040000,0.230000,-0.010000,0.095538,-0.212533,-0.017698,-0.079475,-0.449777,-0.017554,0.000000,0.000000,
387465660,-0.342900,11.548622,1,-0.125732,0.020203,-0.010986,0.991821,-0.130000,0.100000,0.000000,0.150692,-0.064343,-0.007538,-0.236628,-0.676651,-0.007648,0.000000,0.000000,
387475305,0.658031,11.543974,1,-0.125488,0.020203,-0.010986,0.991821,-0.050000,0.090000,-0.030000,0.069461,-0.074171,-0.034252,0.275205,0.002661,-0.033959,0.000000,0.000000,
387487345,0.745173,11.548622,1,-0.125366,0.020142,-0.010986,0.991821,0.000000,0.130000,-0.030000,0.030990,-0.125368,-0.033458,0.548253,0.354500,-0.033464,0.000000,0.000000,
387496239,0.012813,11.557916,1,-0.125427,0.020081,-0.011047,0.991821,0.090000,0.250000,-0.020000,-0.025852,-0.264151,-0.023381,0.240305,-0.099893,-0.023492,0.000000,0.000000,
387505470,0.745173,11.548622,1,-0.125671,0.020020,-0.011047,0.991821,0.170000,0.390000,0.020000,-0.066603,-0.420398,0.015749,0.531672,0.280973,0.015317,0.000000,0.000000,
387517299,0.019954,11.548622,1,-0.125916,0.020020,-0.010986,0.991760,0.190000,0.330000,-0.010000,-0.101960,-0.366803,-0.011825,0.238075,-0.092641,-0.011526,0.000000,0.000000,
387526163,0.288020,11.553269,1,-0.126099,0.020020,-0.010925,0.991760,0.190000,0.190000,-0.020000,-0.137219,-0.231189,-0.018035,0.266249,-0.051243,-0.017963,0.000000,0.000000,
387535640,-0.074330,11.553269,1,-0.126038,0.020020,-0.010925,0.991760,0.000000,0.050000,-0.040000,0.010780,-0.047734,-0.041294,0.068588,-0.306043,-0.041037,0.000000,0.000000,
387547457,-0.437169,11.553269,1,-0.125793,0.020020,-0.010925,0.991821,-0.170000,-0.120000,0.050000,0.136734,0.157849,0.046869,-0.228591,-0.679011,0.045901,0.000000,0.000000,
387556324,0.201381,11.548622,1,-0.125549,0.019958,-0.010925,0.991821,-0.110000,0.080000,0.070000,0.129294,-0.051181,0.063740,0.015057,-0.318843,0.063543,0.000000,0.000000,
387565596,0.012813,11.557916,1,-0.125549,0.019958,-0.010925,0.991821,-0.080000,0.200000,0.000000,0.127134,-0.173685,-0.008284,0.010801,-0.320603,-0.007493,0.000000,0.000000,
387577554,0.193736,11.557916,1,-0.125854,0.019958,-0.010925,0.991760,0.000000,0.270000,0.000000,0.067284,-0.261353,-0.007207,0.113135,-0.186837,-0.007211,0.000000,0.000000,
387586145,0.107097,11.553269,1,-0.126343,0.019958,-0.010925,0.991699,0.010000,0.210000,0.020000,0.043707,-0.206066,0.014738,0.108025,-0.191786,0.014496,0.000000,0.000000,
387595466,-0.255757,11.553269,1,-0.126648,0.019958,-0.010925,0.991699,-0.050000,0.180000,0.020000,0.094342,-0.161942,0.013328,-0.104261,-0.461039,0.013341,0.000000,0.000000,
387607432,0.012813,11.557916,1,-0.126770,0.019958,-0.010925,0.991699,-0.040000,0.150000,-0.040000,0.074643,-0.134420,-0.045441,-0.041840,-0.376007,-0.044793,0.000000,0.000000,
387616323,0.650889,11.553269,1,-0.126892,0.019897,-0.010925,0.991638,0.000000,0.120000,-0.070000,0.027191,-0.114935,-0.073134,0.357145,0.206655,-0.072822,0.000000,0.000000,
387625772,0.469462,11.553269,1,-0.127136,0.019897,-0.010925,0.991638,0.090000,0.140000,-0.030000,-0.053051,-0.157682,-0.030409,0.424136,0.291159,-0.030877,0.000000,0.000000,
387637426,0.832332,11.553269,1,-0.127502,0.019897,-0.010925,0.991577,0.010000,0.120000,0.020000,0.021469,-0.118934,0.017137,0.664455,0.594777,0.016608,0.000000,0.000000,
387646216,0.288020,11.553269,1,-0.127930,0.019897,-0.010925,0.991516,-0.080000,0.040000,-0.030000,0.086178,-0.017853,-0.033972,0.451159,0.280327,-0.033415,0.000000,0.000000,
387655690,0.288020,11.553269,1,-0.128357,0.019836,-0.010986,0.991455,-0.130000,0.080000,0.000000,0.145934,-0.044196,-0.006897,0.359371,0.158212,-0.007189,0.000000,0.000000,
387667537,0.288020,11.553269,1,-0.128784,0.019775,-0.010986,0.991394,0.000000,0.250000,0.000000,0.063729,-0.241627,-0.006719,0.319824,0.105162,-0.006724,0.000000,0.000000,
387676419,-0.074330,11.553269,1,-0.129456,0.019714,-0.011047,0.991333,-0.120000,0.170000,-0.020000,0.158608,-0.133076,-0.028918,0.091833,-0.227573,-0.028673,0.000000,0.000000,
387685727,-0.081456,11.562563,1,-0.130127,0.019714,-0.011047,0.991272,-0.170000,0.090000,-0.030000,0.186053,-0.042507,-0.038558,-0.010619,-0.359030,-0.038449,0.000000,0.000000,
387697212,0.288020,11.553269,1,-0.130615,0.019653,-0.011047,0.991150,-0.180000,0.060000,-0.040000,0.187535,-0.010578,-0.048074,0.158516,-0.138804,-0.047968,0.000000,0.000000,
387705914,0.476588,11.543974,1,-0.131165,0.019531,-0.011108,0.991089,-0.090000,0.150000,-0.010000,0.125346,-0.121184,-0.017283,0.341862,0.124220,-0.017621,0.000000,0.000000,
387715483,0.107097,11.553269,1,-0.131958,0.019470,-0.011169,0.991028,0.360000,0.570000,0.020000,-0.197563,-0.644721,0.017264,0.207161,-0.050002,0.016879,0.000000,0.000000,
387727501,0.107097,11.553269,1,-0.132996,0.019409,-0.011108,0.990845,0.500000,0.820000,0.010000,-0.265720,-0.922888,0.005460,0.148450,-0.124585,0.005586,0.000000,0.000000,
387736385,0.563746,11.548622,1,-0.133789,0.019409,-0.011108,0.990784,0.510000,0.840000,0.020000,-0.268251,-0.945572,0.015226,0.388652,0.230389,0.015120,0.000000,0.000000,
387745660,0.375163,11.557916,1,-0.133911,0.019409,-0.011108,0.990723,0.380000,0.790000,0.000000,-0.156782,-0.862407,-0.008011,0.382977,0.220029,-0.007757,0.000000,0.000000,
387757477,0.107097,11.553269,1,-0.133057,0.019409,-0.011108,0.990845,0.040000,0.040000,-0.030000,-0.029264,-0.048631,-0.029637,0.225437,0.015061,-0.029396,0.000000,0.000000,
387766350,-0.262883,11.562563,1,-0.131409,0.019409,-0.011108,0.991089,-0.270000,-0.240000,-0.120000,0.193108,0.304139,-0.122970,-0.058040,-0.398359,-0.121939,0.000000,0.000000,
387775664,0.375163,11.557916,1,-0.129578,0.019470,-0.011047,0.991333,-0.360000,-0.240000,-0.420000,0.268691,0.331620,-0.425978,0.189059,-0.073814,-0.422627,0.000000,0.000000,
387787537,0.193736,11.557916,1,-0.128174,0.019470,-0.011047,0.991516,-0.450000,-0.190000,-0.900000,0.349395,0.313520,-0.910087,0.190833,-0.081134,-0.904716,0.000000,0.000000,
387796399,0.193736,11.557916,1,-0.127441,0.019470,-0.010986,0.991577,-0.240000,0.010000,-0.630000,0.208439,0.061687,-0.638233,0.191776,-0.084320,-0.641169,0.000000,0.000000,
387805677,0.193736,11.557916,1,-0.127380,0.019470,-0.010986,0.991577,-0.320000,-0.140000,-0.500000,0.253330,0.224797,-0.507216,0.192107,-0.087538,-0.508692,0.000000,0.000000,
387817581,0.382304,11.548622,1,-0.127869,0.019470,-0.010986,0.991516,-0.300000,-0.070000,-0.390000,0.256061,0.150441,-0.398477,0.301448,0.048780,-0.399691,0.000000,0.000000,
387826439,0.288020,11.553269,1,-0.128723,0.019470,-0.011108,0.991455,-0.350000,-0.270000,-0.210000,0.260667,0.354076,-0.215000,0.294072,0.035475,-0.217035,0.000000,0.000000,
387835656,0.012813,11.557916,1,-0.129944,0.019470,-0.011230,0.991272,0.010000,0.340000,0.570000,0.101453,-0.340827,0.560490,0.131580,-0.173313,0.551922,0.000000,0.000000,
387847568,0.012813,11.557916,1,-0.131348,0.019470,-0.011353,0.991089,0.200000,0.480000,0.650000,-0.041172,-0.526792,0.643205,0.060621,-0.253524,0.642200,0.000000,0.000000,
387856481,-0.255757,11.553269,1,-0.132446,0.019470,-0.011353,0.990906,0.400000,0.700000,0.570000,-0.178481,-0.790237,0.564293,-0.125407,-0.517297,0.565152,0.000000,0.000000,
387865738,0.193736,11.557916,1,-0.133179,0.019531,-0.011353,0.990845,0.450000,0.750000,0.400000,-0.219414,-0.849113,0.394874,0.054628,-0.269941,0.396750,0.000000,0.000000,
387884577,0.382304,11.548622,1,-0.133423,0.019592,-0.011353,0.990784,0.060000,0.460000,-0.560000,0.040162,-0.449693,-0.570031,0.241360,-0.037036,-0.559377,0.000000,0.000000,
387893327,0.012813,11.557916,1,-0.132507,0.019592,-0.011353,0.990906,0.010000,0.160000,-0.950000,-0.007440,-0.140518,-0.953098,0.106322,-0.307394,-0.948759,0.000000,0.000000,
387902052,0.469462,11.553269,1,-0.131042,0.019592,-0.011353,0.991089,-0.090000,-0.060000,-1.020000,0.028624,0.099050,-1.020523,0.314778,0.001217,-1.019732,0.000000,0.000000,
387913135,0.201381,11.548622,1,-0.129333,0.019653,-0.011292,0.991333,-0.170000,-0.240000,-1.020000,0.060015,0.293219,-1.018487,0.248907,-0.096200,-1.018500,0.000000,0.000000,
387921792,0.107097,11.553269,1,-0.127747,0.019653,-0.011230,0.991577,-0.280000,-0.240000,-0.550000,0.186966,0.312680,-0.552996,0.165816,-0.216348,-0.558126,0.000000,0.000000,
387930404,0.193736,11.557916,1,-0.127747,0.019653,-0.011230,0.991577,-0.270000,-0.360000,0.830000,0.204697,0.402404,0.829226,0.180120,-0.188783,0.813938,0.000000,0.000000,
387941126,0.469462,11.553269,1,-0.126038,0.019653,-0.011230,0.991760,-0.340000,-0.160000,1.950000,0.370533,0.206244,1.940067,0.345610,0.033371,1.927657,0.000000,0.000000,
387949228,0.099452,11.562563,1,-0.126038,0.019653,-0.011230,0.991760,-0.330000,0.050000,1.140000,0.379397,0.014501,1.125540,0.203518,-0.148064,1.134379,0.000000,0.000000,
387958060,0.193736,11.557916,1,-0.126282,0.019653,-0.011292,0.991760,0.110000,0.390000,-0.080000,-0.012249,-0.403707,-0.086614,0.196561,-0.155600,-0.073159,0.000000,0.000000,
387969170,0.201381,11.548622,1,-0.127197,0.019653,-0.011414,0.991638,-0.010000,0.270000,-0.210000,0.068865,-0.254985,-0.217606,0.197608,-0.154677,-0.216014,0.000000,0.000000,
387978060,0.375163,11.557916,1,-0.128052,0.019653,-0.011414,0.991516,0.150000,0.380000,-0.230000,-0.058283,-0.401562,-0.234868,0.299119,-0.015948,-0.234660,0.000000,0.000000,
387989123,0.280879,11.562563,1,-0.128479,0.019714,-0.011353,0.991455,0.240000,0.550000,0.170000,-0.084879,-0.595925,0.163339,0.288377,-0.027616,0.158953,0.000000,0.000000,
387998061,0.099452,11.562563,1,-0.128906,0.019714,-0.011353,0.991394,0.070000,0.240000,0.070000,-0.003443,-0.251103,0.065837,0.178560,-0.180259,0.066863,0.000000,0.000000,
388006927,-0.081456,11.562563,1,-0.129150,0.019714,-0.011414,0.991394,0.100000,0.020000,-0.100000,-0.095690,-0.043229,-0.096837,0.026561,-0.375714,-0.095033,0.000000,0.000000,
388018181,0.186595,11.567210,1,-0.128845,0.019714,-0.011414,0.991394,0.040000,-0.020000,-0.130000,-0.049204,0.011375,-0.127865,0.115057,-0.261975,-0.127503,0.000000,0.000000,
388027075,0.193736,11.557916,1,-0.128296,0.019714,-0.011414,0.991455,-0.100000,0.020000,0.000000,0.101702,0.006150,-0.004170,0.158359,-0.198004,-0.005529,0.000000,0.000000,
388035905,0.186595,11.567210,1,-0.128113,0.019714,-0.011414,0.991516,-0.070000,0.050000,0.060000,0.082854,-0.031589,0.056022,0.172944,-0.176363,0.055343,0.000000,0.000000,
388047676,-0.357167,11.567210,1,-0.128113,0.019714,-0.011414,0.991516,-0.140000,-0.050000,-0.100000,0.118424,0.085738,-0.103576,-0.136504,-0.559117,-0.101824,0.000000,0.000000,
388056537,0.193736,11.557916,1,-0.128052,0.019714,-0.011414,0.991516,-0.080000,0.140000,-0.120000,0.107763,-0.112917,-0.126645,0.050255,-0.283531,-0.126371,0.000000,0.000000,
388065876,0.549464,11.567210,1,-0.128235,0.019714,-0.011414,0.991455,-0.010000,0.320000,0.020000,0.091728,-0.307162,0.010757,0.336641,0.095315,0.009246,0.000000,0.000000,
388077745,-0.182881,11.576504,1,-0.128540,0.019714,-0.011414,0.991455,-0.040000,0.100000,-0.070000,0.061151,-0.085232,-0.074144,0.036138,-0.293754,-0.073225,0.000000,0.000000,
388086631,0.092326,11.571857,1,-0.128723,0.019714,-0.011353,0.991394,0.060000,0.180000,-0.020000,-0.012938,-0.188962,-0.022775,0.066171,-0.245956,-0.023331,0.000000,0.000000,
388095886,0.099452,11.562563,1,-0.128784,0.019653,-0.011353,0.991394,0.140000,0.270000,0.030000,-0.065156,-0.297289,0.027571,0.083169,-0.220177,0.027010,0.000000,0.000000,
388107745,-0.357167,11.567210,1,-0.129150,0.019653,-0.011353,0.991394,0.080000,0.160000,-0.010000,-0.036797,-0.174987,-0.011521,-0.175092,-0.549301,-0.011096,0.000000,0.000000,
388116337,-0.074330,11.553269,1,-0.129639,0.019592,-0.011353,0.991272,0.100000,0.160000,0.000000,-0.055499,-0.180307,-0.000824,-0.121298,-0.463253,-0.000937,0.000000,0.000000,
388125728,0.288020,11.553269,1,-0.130066,0.019592,-0.011353,0.991272,0.010000,0.350000,0.080000,0.083784,-0.342079,0.070616,0.111311,-0.153938,0.069827,0.000000,0.000000,
388137417,0.643764,11.562563,1,-0.130432,0.019592,-0.011353,0.991211,-0.090000,0.160000,0.020000,0.129009,-0.131559,0.012332,0.418586,0.244564,0.012965,0.000000,0.000000,
388146312,0.469462,11.553269,1,-0.130554,0.019592,-0.011292,0.991150,-0.110000,0.050000,-0.030000,0.117815,-0.019242,-0.035292,0.450309,0.287366,-0.034760,0.000000,0.000000,
388155795,0.280879,11.562563,1,-0.130432,0.019592,-0.011292,0.991211,-0.030000,0.220000,-0.040000,0.084075,-0.204007,-0.047085,0.354892,0.157283,-0.046949,0.000000,0.000000,
388168501,-0.081456,11.562563,1,-0.130310,0.019531,-0.011292,0.991211,-0.020000,0.330000,0.000000,0.104408,-0.313526,-0.009782,0.103164,-0.173228,-0.010192,0.000000,0.000000,
388177385,0.186595,11.567210,1,-0.130249,0.019531,-0.011292,0.991211,-0.100000,-0.020000,-0.010000,0.090953,0.045353,-0.013018,0.150185,-0.098604,-0.012987,0.000000,0.000000,
388186244,0.092326,11.571857,1,-0.130127,0.019470,-0.011292,0.991211,-0.130000,0.130000,-0.090000,0.155223,-0.090397,-0.098113,0.115794,-0.144846,-0.097175,0.000000,0.000000,
388198839,-0.444310,11.562563,1,-0.130066,0.019470,-0.011292,0.991272,0.070000,0.030000,0.010000,-0.059447,-0.047234,0.011663,-0.211365,-0.557331,0.010463,0.000000,0.000000,
388207725,0.643764,11.562563,1,-0.130371,0.019409,-0.011292,0.991211,0.090000,0.110000,0.070000,-0.055592,-0.130745,0.070108,0.281096,0.197332,0.069451,0.000000,0.000000,
388216610,0.193736,11.557916,1,-0.130798,0.019348,-0.011353,0.991150,-0.030000,0.190000,0.000000,0.078130,-0.175654,-0.006299,0.232258,0.129302,-0.005464,0.000000,0.000000,
388229032,0.099452,11.562563,1,-0.131226,0.019348,-0.011353,0.991089,-0.020000,0.190000,0.000000,0.068633,-0.178189,-0.005948,0.156746,0.031611,-0.005942,0.000000,0.000000,
388237952,-0.262883,11.562563,1,-0.131653,0.019287,-0.011353,0.991028,0.010000,0.190000,-0.020000,0.039026,-0.185618,-0.024868,-0.086983,-0.335045,-0.024659,0.000000,0.000000,
388246604,0.462321,11.562563,1,-0.132141,0.019287,-0.011353,0.990967,-0.130000,0.220000,-0.030000,0.181641,-0.177625,-0.040621,0.228093,0.090822,-0.040445,0.000000,0.000000,
388259019,0.099452,11.562563,1,-0.132385,0.019226,-0.011353,0.990967,-0.060000,0.270000,-0.050000,0.126526,-0.243848,-0.059506,0.154556,-0.003022,-0.059295,0.000000,0.000000,
388267898,0.099452,11.562563,1,-0.132446,0.019165,-0.011353,0.990967,0.050000,0.460000,-0.030000,0.071106,-0.456416,-0.040907,0.122494,-0.051236,-0.041109,0.000000,0.000000,
388276803,0.005168,11.567210,1,-0.132568,0.019104,-0.011292,0.990906,0.110000,0.500000,-0.010000,0.024694,-0.511033,-0.019876,0.054108,-0.142020,-0.020110,0.000000,0.000000,
388288921,0.643764,11.562563,1,-0.132568,0.019043,-0.011108,0.990906,0.080000,0.250000,0.000000,-0.011547,-0.262180,-0.003982,0.394633,0.290507,-0.004160,0.000000,0.000000,
388297803,0.288020,11.553269,1,-0.132263,0.019043,-0.011047,0.990967,0.040000,0.170000,0.020000,0.006734,-0.174848,0.016795,0.335261,0.199013,0.016564,0.000000,0.000000,
388306707,0.005168,11.567210,1,-0.131897,0.019043,-0.010986,0.991028,-0.260000,-0.060000,0.000000,0.235113,0.125980,-0.007452,0.145944,-0.054875,-0.007187,0.000000,0.000000,
388318979,-0.538579,11.567210,1,-0.131531,0.018921,-0.010986,0.991089,0.030000,0.070000,-0.060000,-0.013145,-0.074392,-0.060777,-0.252096,-0.556985,-0.060186,0.000000,0.000000,
388327883,-0.175740,11.567210,1,-0.131287,0.018921,-0.010986,0.991089,-0.240000,0.030000,-0.050000,0.237316,0.034439,-0.059063,-0.212673,-0.491371,-0.059076,0.000000,0.000000,
388336760,0.375163,11.557916,1,-0.131348,0.018921,-0.010986,0.991089,-0.180000,-0.090000,-0.010000,0.149858,0.133977,-0.013815,0.123300,-0.037197,-0.014313,0.000000,0.000000,
388356144,-0.632863,11.571857,1,-0.131226,0.018982,-0.010986,0.991089,-0.190000,0.160000,-0.040000,0.223234,-0.104265,-0.050844,-0.320331,-0.592432,-0.050441,0.000000,0.000000,
388365677,0.375163,11.557916,1,-0.131348,0.018860,-0.011047,0.991089,-0.010000,0.380000,-0.060000,0.106007,-0.363161,-0.070491,0.084969,0.221004,-0.070270,0.000000,0.000000,
388375491,0.201381,11.548622,1,-0.131653,0.018799,-0.011047,0.991028,0.120000,0.270000,-0.010000,-0.045801,-0.291738,-0.013117,0.155087,0.327963,-0.013747,0.000000,0.000000,
388387813,-0.262883,11.562563,1,-0.132080,0.018799,-0.011047,0.991028,0.200000,0.660000,-0.010000,-0.020798,-0.689158,-0.020851,-0.084661,-0.017830,-0.020773,0.000000,0.000000,
388396728,-0.161473,11.548622,1,-0.132446,0.018799,-0.011047,0.990967,0.240000,0.490000,-0.060000,-0.105416,-0.534806,-0.064872,-0.129545,-0.087134,-0.064386,0.000000,0.000000,
388405897,0.382304,11.548622,1,-0.132629,0.018799,-0.011047,0.990906,0.080000,0.140000,-0.030000,-0.041588,-0.155583,-0.030989,0.166222,0.309585,-0.031357,0.000000,0.000000,
388418559,0.462321,11.562563,1,-0.132324,0.018860,-0.011047,0.990967,0.140000,0.210000,0.060000,-0.077594,-0.240384,0.059120,0.342192,0.528612,0.058123,0.000000,0.000000,
388427472,-0.531453,11.557916,1,-0.131836,0.018982,-0.010986,0.991028,-0.020000,0.150000,0.030000,0.059639,-0.140018,0.025260,-0.161224,-0.232775,0.025622,0.000000,0.000000,
388436385,0.556605,11.557916,1,-0.131531,0.018982,-0.011047,0.991089,-0.130000,-0.010000,0.000000,0.122816,0.043600,-0.004245,0.252301,0.316983,-0.003915,0.000000,0.000000,
388449008,-0.074330,11.553269,1,-0.130981,0.018982,-0.011047,0.991150,-0.270000,-0.050000,-0.070000,0.244752,0.119676,-0.077967,0.066654,0.080126,-0.077151,0.000000,0.000000,
388457903,-0.081456,11.562563,1,-0.130188,0.019043,-0.011047,0.991272,-0.240000,0.040000,-0.060000,0.239586,0.024424,-0.069387,-0.018747,-0.048498,-0.069472,0.000000,0.000000,
388469950,0.288020,11.553269,1,-0.129700,0.019104,-0.010986,0.991333,-0.120000,0.160000,-0.080000,0.153706,-0.122339,-0.088404,0.158976,0.184315,-0.088195,0.000000,0.000000,
388478387,0.012813,11.557916,1,-0.129639,0.019226,-0.011047,0.991333,-0.120000,0.090000,-0.080000,0.135703,-0.054712,-0.086572,0.075637,0.058538,-0.086590,0.000000,0.000000,
388486925,0.556605,11.557916,1,-0.129700,0.019348,-0.011108,0.991272,0.060000,0.290000,-0.050000,0.014453,-0.294741,-0.055664,0.354153,0.413317,-0.056005,0.000000,0.000000,
388498992,0.012813,11.557916,1,-0.130066,0.019531,-0.011169,0.991272,0.140000,0.260000,-0.020000,-0.069071,-0.286981,-0.022044,0.161340,0.175888,-0.022418,0.000000,0.000000,
388507876,-0.074330,11.553269,1,-0.130493,0.019714,-0.011108,0.991211,0.240000,0.260000,-0.070000,-0.167451,-0.312112,-0.068308,0.026094,-0.020356,-0.067802,0.000000,0.000000,
388516758,0.005168,11.567210,1,-0.130615,0.020020,-0.011047,0.991150,0.190000,0.190000,-0.100000,-0.138497,-0.231068,-0.098058,0.013803,-0.036897,-0.097725,0.000000,0.000000,
388533570,0.280879,11.562563,1,-0.129822,0.020874,-0.010742,0.991272,0.850000,0.420000,-0.690000,-0.743219,-0.613964,-0.667655,0.168898,0.143006,-0.661375,0.000000,0.000000,
388542205,0.375163,11.557916,1,-0.127869,0.021118,-0.010681,0.991516,-1.300000,-1.380000,-0.520000,0.883870,1.673029,-0.533625,0.290996,0.353196,-0.535033,0.000000,0.000000,
388550847,0.099452,11.562563,1,-0.127869,0.021118,-0.010681,0.991516,0.080000,0.660000,0.160000,0.096880,-0.661133,0.145409,0.182921,0.196704,0.137910,0.000000,0.000000,
388562839,-0.081456,11.562563,1,-0.125610,0.021729,-0.010559,0.991760,0.450000,-0.070000,1.230000,-0.396464,-0.063603,1.248613,0.031911,0.017868,1.236374,0.000000,0.000000,
388571485,0.563746,11.548622,1,-0.126404,0.022034,-0.010559,0.991699,0.840000,0.620000,0.190000,-0.648451,-0.814009,0.207802,0.340845,0.466032,0.219137,0.000000,0.000000,
388579876,-0.350026,11.557916,1,-0.126404,0.022034,-0.010559,0.991699,0.060000,0.940000,-0.450000,0.156333,-0.917984,-0.471923,-0.054566,-0.049103,-0.464308,0.000000,0.000000,
388591618,-0.081456,11.562563,1,-0.129822,0.021667,-0.010620,0.991211,0.020000,1.170000,-0.350000,0.265271,-1.129903,-0.380003,-0.070741,-0.072068,-0.380932,0.000000,0.000000,
388600081,-0.262883,11.562563,1,-0.129822,0.021667,-0.010620,0.991211,0.060000,0.240000,0.050000,0.006028,-0.248066,0.045951,-0.182737,-0.227715,0.041246,0.000000,0.000000,
388608287,0.005168,11.567210,1,-0.130127,0.021606,-0.010559,0.991211,0.690000,0.340000,0.000000,-0.578449,-0.506729,0.018630,-0.076106,-0.091797,0.018879,0.000000,0.000000,
388620338,0.186595,11.567210,1,-0.129822,0.021729,-0.010559,0.991272,0.130000,-0.080000,-0.160000,-0.153395,0.046223,-0.152444,0.074864,0.083623,-0.150556,0.000000,0.000000,
388628662,0.099452,11.562563,1,-0.129639,0.021851,-0.010681,0.991272,-0.140000,-0.100000,-0.180000,0.101215,0.135459,-0.182780,0.089811,0.102336,-0.182425,0.000000,0.000000,
388637556,0.280879,11.562563,1,-0.129089,0.021851,-0.010681,0.991333,-0.320000,-0.020000,-0.230000,0.293319,0.104952,-0.242172,0.201129,0.238345,-0.241514,0.000000,0.000000,
388649580,-0.175740,11.567210,1,-0.128113,0.021790,-0.010559,0.991455,0.010000,0.240000,-0.170000,0.043391,-0.231994,-0.175761,-0.014498,-0.030230,-0.176485,0.000000,0.000000,
388658279,-0.081456,11.562563,1,-0.127686,0.021729,-0.010559,0.991516,0.100000,-0.170000,0.360000,-0.123127,0.133509,0.368122,-0.053614,-0.083093,0.362120,0.000000,0.000000,
388667161,0.092326,11.571857,1,-0.127869,0.021729,-0.010620,0.991516,0.120000,-0.170000,0.620000,-0.130601,0.124320,0.628644,0.030088,0.031506,0.625707,0.000000,0.000000,
388679205,-0.175740,11.567210,1,-0.127869,0.021851,-0.010620,0.991516,0.020000,0.210000,0.070000,0.037046,-0.209268,0.065134,-0.088909,-0.115424,0.071311,0.000000,0.000000,
388687858,0.556605,11.557916,1,-0.127808,0.021851,-0.010620,0.991516,-0.140000,0.650000,-0.130000,0.293754,-0.591097,-0.152852,0.284866,0.428299,-0.150382,0.000000,0.000000,
388696489,0.280879,11.562563,1,-0.127991,0.021729,-0.010620,0.991455,-0.020000,0.140000,-0.130000,0.048836,-0.128268,-0.134382,0.286252,0.424154,-0.134558,0.000000,0.000000,
388708864,0.186595,11.567210,1,-0.128113,0.021667,-0.010681,0.991455,0.090000,-0.220000,-0.080000,-0.146400,0.191064,-0.070405,0.233696,0.352676,-0.071112,0.000000,0.000000,
388717723,0.099452,11.562563,1,-0.127930,0.021729,-0.010620,0.991516,0.130000,-0.100000,-0.130000,-0.156914,0.065691,-0.121938,0.158813,0.236634,-0.121378,0.000000,0.000000,
388726616,0.005168,11.567210,1,-0.127930,0.021790,-0.010620,0.991455,0.100000,0.140000,-0.180000,-0.069436,-0.157995,-0.179468,0.071980,0.117704,-0.178828,0.000000,0.000000,
388739057,0.469462,11.553269,1,-0.128418,0.021790,-0.010620,0.991394,-0.080000,0.380000,0.130000,0.179829,-0.348939,0.116481,0.304195,0.408068,0.113226,0.000000,0.000000,
388747966,0.186595,11.567210,1,-0.128967,0.021667,-0.010681,0.991333,0.180000,0.270000,0.240000,-0.093943,-0.310784,0.239730,0.239471,0.308196,0.238336,0.000000,0.000000,
388756861,-0.088597,11.571857,1,-0.129395,0.021606,-0.010620,0.991272,0.170000,0.150000,0.050000,-0.123439,-0.189387,0.052760,0.052273,0.055802,0.054805,0.000000,0.000000,
388769102,-0.081456,11.562563,1,-0.129517,0.021667,-0.010559,0.991272,-0.140000,0.300000,-0.210000,0.202464,-0.250624,-0.223351,-0.024684,-0.044564,-0.220286,0.000000,0.000000,
388777935,0.099452,11.562563,1,-0.129333,0.021667,-0.010559,0.991333,-0.170000,0.450000,-0.130000,0.273416,-0.389227,-0.148631,0.047055,0.060924,-0.149420,0.000000,0.000000,
388786842,0.280879,11.562563,1,-0.129028,0.021606,-0.010498,0.991333,-0.150000,0.200000,-0.040000,0.194107,-0.154233,-0.051251,0.182940,0.239284,-0.052333,0.000000,0.000000,
388799102,0.273753,11.571857,1,-0.128601,0.021484,-0.010437,0.991394,0.010000,-0.020000,-0.290000,-0.027882,0.021177,-0.288746,0.238561,0.301910,-0.286140,0.000000,0.000000,
388808030,-0.081456,11.562563,1,-0.128174,0.021484,-0.010376,0.991455,0.080000,0.010000,-0.480000,-0.096483,-0.022805,-0.476519,0.055239,0.022119,-0.474421,0.000000,0.000000,
388816734,0.186595,11.567210,1,-0.127869,0.021545,-0.010376,0.991516,-0.010000,0.040000,-0.550000,-0.005169,-0.027859,-0.550815,0.131437,0.118407,-0.549973,0.000000,0.000000,
388836073,0.092326,11.571857,1,-0.127869,0.021545,-0.010376,0.991516,-0.110000,0.190000,-0.230000,0.143962,-0.152349,-0.239101,0.110789,0.085513,-0.242527,0.000000,0.000000,
388845603,0.201381,11.548622,1,-0.127930,0.021545,-0.010376,0.991516,0.040000,0.220000,-0.080000,0.013426,-0.221730,-0.084045,0.165104,0.189827,-0.085792,0.000000,0.000000,
388855337,0.382304,11.548622,1,-0.127991,0.021545,-0.010376,0.991455,0.050000,0.170000,-0.100000,-0.009778,-0.175578,-0.102318,0.293681,0.387274,-0.102135,0.000000,0.000000,
388867820,-0.168614,11.557916,1,-0.127930,0.021545,-0.010376,0.991516,0.020000,0.390000,-0.360000,0.063099,-0.376843,-0.368961,0.028876,0.004115,-0.366021,0.000000,0.000000,
388876727,0.193736,11.557916,1,-0.127502,0.021545,-0.010315,0.991577,-0.080000,0.490000,-0.290000,0.187861,-0.449413,-0.305593,0.124897,0.149143,-0.306258,0.000000,0.000000,
388885900,-0.081456,11.562563,1,-0.126892,0.021545,-0.010315,0.991638,0.080000,0.500000,-0.180000,0.040094,-0.501281,-0.189548,0.006697,-0.012384,-0.190834,0.000000,0.000000,
388898732,0.099452,11.562563,1,-0.126099,0.021545,-0.010254,0.991760,0.100000,0.340000,0.070000,-0.008676,-0.355255,0.065173,0.060446,0.056639,0.062351,0.000000,0.000000,
388907615,0.107097,11.553269,1,-0.125183,0.021545,-0.010254,0.991821,0.300000,0.320000,0.170000,-0.203266,-0.387040,0.173623,0.088095,0.099053,0.172397,0.000000,0.000000,
388916499,0.193736,11.557916,1,-0.124146,0.021606,-0.010071,0.992004,0.220000,0.290000,0.220000,-0.131753,-0.338531,0.221281,0.150144,0.181815,0.220742,0.000000,0.000000,
388928983,0.186595,11.567210,1,-0.122803,0.021667,-0.010071,0.992126,0.270000,0.350000,0.300000,-0.162812,-0.409657,0.301741,0.173595,0.211782,0.300849,0.000000,0.000000,
388937587,-0.350026,11.557916,1,-0.121094,0.021790,-0.010010,0.992371,0.150000,0.300000,0.170000,-0.065735,-0.329761,0.168385,-0.128767,-0.234402,0.169844,0.000000,0.000000,
388946224,0.012813,11.557916,1,-0.118958,0.021851,-0.009949,0.992615,0.170000,0.370000,-0.050000,-0.080100,-0.398957,-0.052202,-0.048923,-0.129430,-0.049755,0.000000,0.000000,
388958837,0.368037,11.567210,1,-0.116394,0.021912,-0.009888,0.992920,0.280000,0.490000,-0.040000,-0.160939,-0.540902,-0.040535,0.191288,0.162183,-0.040637,0.000000,0.000000,
388967701,0.012813,11.557916,1,-0.113281,0.021973,-0.009827,0.993286,0.160000,0.480000,-0.100000,-0.052524,-0.502238,-0.105016,0.089006,0.008770,-0.104307,0.000000,0.000000,
388976589,0.375163,11.557916,1,-0.109619,0.022156,-0.009583,0.993652,0.230000,0.340000,0.290000,-0.136919,-0.386045,0.291180,0.254701,0.227874,0.286821,0.000000,0.000000,
388988911,0.099452,11.562563,1,-0.105408,0.022278,-0.009338,0.994141,0.200000,0.200000,0.210000,-0.143813,-0.240437,0.213567,0.167442,0.119134,0.214375,0.000000,0.000000,
388997793,0.012813,11.557916,1,-0.100891,0.022339,-0.009155,0.994629,0.070000,0.120000,0.000000,-0.044477,-0.131626,0.000255,0.078659,-0.012282,0.002614,0.000000,0.000000,
389006699,0.375163,11.557916,1,-0.096130,0.022400,-0.008972,0.995056,0.040000,0.160000,-0.140000,-0.015155,-0.162776,-0.141669,0.250136,0.210707,-0.140079,0.000000,0.000000,
389019046,0.005168,11.567210,1,-0.091248,0.022461,-0.008850,0.995544,-0.100000,0.200000,-0.180000,0.126154,-0.176003,-0.188445,0.110569,0.032293,-0.187912,0.000000,0.000000,
389027962,0.193736,11.557916,1,-0.086243,0.022461,-0.008728,0.995972,-0.420000,0.200000,0.360000,0.464238,-0.129533,0.337171,0.159199,0.106224,0.331385,0.000000,0.000000,
389036857,0.549464,11.567210,1,-0.081238,0.022522,-0.008606,0.996399,-0.390000,-0.390000,0.140000,0.327943,0.446188,0.130994,0.386026,0.403851,0.133203,0.000000,0.000000,
389049124,0.280879,11.562563,1,-0.076050,0.022644,-0.008484,0.996826,-0.430000,0.250000,0.110000,0.467528,-0.183209,0.085925,0.329972,0.329157,0.086446,0.000000,0.000000,
389057778,0.186595,11.567210,1,-0.070923,0.022644,-0.008362,0.997192,-0.290000,-0.040000,0.110000,0.286244,0.079241,0.097915,0.249549,0.208032,0.097788,0.000000,0.000000,
389066417,0.092326,11.571857,1,-0.066345,0.022705,-0.008301,0.997498,-0.200000,-0.130000,0.220000,0.191078,0.152401,0.213448,0.160432,0.092236,0.212174,0.000000,0.000000,
389078854,-0.175740,11.567210,1,-0.061951,0.022766,-0.008179,0.997803,0.100000,-0.160000,0.470000,-0.097027,0.140016,0.476955,-0.033359,-0.138967,0.474037,0.000000,0.000000,
389087748,0.368037,11.567210,1,-0.057678,0.022766,-0.008057,0.998047,-0.160000,-0.140000,0.180000,0.151052,0.155110,0.175287,0.198647,0.205059,0.178579,0.000000,0.000000,
389096631,-0.088597,11.571857,1,-0.053955,0.022827,-0.007996,0.998230,0.050000,-0.310000,-0.080000,-0.086647,0.303806,-0.071959,0.034218,-0.014075,-0.069198,0.000000,0.000000,
389108831,-0.088597,11.571857,1,-0.050598,0.022827,-0.007935,0.998413,-0.120000,-0.300000,-0.100000,0.084413,0.311931,-0.099810,-0.037224,-0.103965,-0.099473,0.000000,0.000000,
389117693,-0.270024,11.571857,1,-0.047546,0.022766,-0.007874,0.998596,-0.210000,-0.270000,0.000000,0.183305,0.288782,-0.004561,-0.173393,-0.302055,-0.005607,0.000000,0.000000,
389129778,-0.088597,11.571857,1,-0.044800,0.022705,-0.007751,0.998718,-0.090000,-0.280000,0.010000,0.065053,0.286805,0.010874,-0.127764,-0.237573,0.010693,0.000000,0.000000,
389138174,0.186595,11.567210,1,-0.042419,0.022644,-0.007568,0.998840,-0.150000,-0.220000,-0.030000,0.129378,0.232364,-0.032906,0.052826,0.032679,-0.032426,0.000000,0.000000,
389146806,-0.357167,11.567210,1,-0.040466,0.022583,-0.007507,0.998901,-0.150000,-0.080000,-0.130000,0.136974,0.093620,-0.135183,-0.183933,-0.272832,-0.134051,0.000000,0.000000,
389158937,0.280879,11.562563,1,-0.038818,0.022583,-0.007385,0.998962,-0.170000,0.310000,0.040000,0.195080,-0.296309,0.027264,0.082217,0.054631,0.025487,0.000000,0.000000,
389167821,-0.357167,11.567210,1,-0.037354,0.022339,-0.007385,0.999023,-0.060000,0.420000,0.030000,0.092336,-0.414674,0.020423,-0.172455,-0.314780,0.020479,0.000000,0.000000,
389176735,-0.088597,11.571857,1,-0.036011,0.022278,-0.007263,0.999084,-0.190000,0.420000,-0.050000,0.217158,-0.404501,-0.065073,-0.126737,-0.251907,-0.064130,0.000000,0.000000,
389189081,0.368037,11.567210,1,-0.034485,0.022278,-0.007141,0.999146,-0.210000,-0.040000,0.000000,0.206560,0.054441,-0.008613,0.157301,0.105815,-0.009225,0.000000,0.000000,
389197989,0.549464,11.567210,1,-0.032776,0.022156,-0.007080,0.999207,-0.280000,-0.420000,0.000000,0.251762,0.437508,-0.005715,0.386168,0.442869,-0.005754,0.000000,0.000000,
389206883,0.005168,11.567210,1,-0.031250,0.022095,-0.007019,0.999268,-0.170000,-0.390000,-0.030000,0.143945,0.400288,-0.031390,0.169554,0.150759,-0.031108,0.000000,0.000000,
389219179,0.005168,11.567210,1,-0.029968,0.022095,-0.007019,0.999268,-0.080000,-0.310000,-0.140000,0.055062,0.315990,-0.138589,0.075986,0.029605,-0.137405,0.000000,0.000000,
389227825,-0.182881,11.576504,1,-0.029236,0.022034,-0.006958,0.999329,-0.150000,0.280000,0.120000,0.171220,-0.272224,0.109073,-0.074146,-0.191912,0.106357,0.000000,0.000000,
389236483,0.005168,11.567210,1,-0.028931,0.022034,-0.006836,0.999329,-0.210000,-0.060000,-0.050000,0.203783,0.072723,-0.058215,-0.029932,-0.132546,-0.056402,0.000000,0.000000,
389248977,-0.270024,11.571857,1,-0.029114,0.022034,-0.006775,0.999329,0.220000,0.370000,0.000000,-0.198010,-0.382233,0.004117,-0.170881,-0.303493,0.003450,0.000000,0.000000,
389257864,0.280879,11.562563,1,-0.029175,0.022034,-0.006653,0.999329,-0.120000,0.520000,-0.100000,0.145415,-0.510875,-0.112715,0.089002,0.085372,-0.111435,0.000000,0.000000,
389266753,0.273753,11.571857,1,-0.029114,0.021912,-0.006592,0.999329,-0.410000,0.260000,0.040000,0.425756,-0.236052,0.018403,0.196713,0.227338,0.016972,0.000000,0.000000,
389278972,0.005168,11.567210,1,-0.028809,0.021851,-0.006592,0.999329,-0.590000,0.540000,-0.180000,0.611475,-0.502780,-0.213149,0.088305,0.085270,-0.210613,0.000000,0.000000,
389287864,0.368037,11.567210,1,-0.028198,0.021729,-0.006470,0.999329,-0.530000,0.320000,-0.080000,0.543063,-0.288488,-0.107271,0.251617,0.324349,-0.108410,0.000000,0.000000,
389296722,0.368037,11.567210,1,-0.027710,0.021667,-0.006409,0.999390,-0.020000,-0.170000,-0.010000,0.010148,0.170974,-0.008467,0.321877,0.413460,-0.009568,0.000000,0.000000,
389316304,0.273753,11.571857,1,-0.027710,0.021790,-0.006470,0.999329,-0.170000,0.190000,0.050000,0.182222,-0.180794,0.039920,0.301796,0.379270,0.039374,0.000000,0.000000,
389325677,0.012813,11.557916,1,-0.027710,0.021851,-0.006592,0.999329,0.130000,0.030000,0.000000,-0.128009,-0.037185,0.005198,0.134624,0.041028,0.005575,0.000000,0.000000,
389335463,0.005168,11.567210,1,-0.027405,0.021851,-0.006592,0.999390,-0.080000,0.210000,0.010000,0.091695,-0.205403,0.003506,0.059493,-0.076781,0.003529,0.000000,0.000000,
389347947,0.738048,11.557916,1,-0.027100,0.021851,-0.006531,0.999390,-0.040000,0.140000,-0.010000,0.047009,-0.137495,-0.013716,0.454275,0.478620,-0.013526,0.000000,0.000000,
389356556,0.462321,11.562563,1,-0.026672,0.021851,-0.006531,0.999390,-0.010000,0.130000,-0.080000,0.013348,-0.128320,-0.082199,0.463075,0.485111,-0.081442,0.000000,0.000000,
389365804,0.186595,11.567210,1,-0.025879,0.021851,-0.006531,0.999390,-0.210000,0.440000,-0.110000,0.227298,-0.427112,-0.125227,0.307440,0.273750,-0.124745,0.000000,0.000000,
389378773,0.280879,11.562563,1,-0.024902,0.021790,-0.006348,0.999451,-0.180000,0.650000,-0.110000,0.206969,-0.638903,-0.126623,0.295544,0.252667,-0.126602,0.000000,0.000000,
389387600,0.738048,11.557916,1,-0.023865,0.021606,-0.006165,0.999451,-0.190000,0.490000,-0.100000,0.208493,-0.479138,-0.114592,0.555215,0.640869,-0.114725,0.000000,0.000000,
389396229,-0.262883,11.562563,1,-0.022766,0.021362,-0.005981,0.999512,-0.260000,0.130000,-0.040000,0.263675,-0.117526,-0.052674,0.087293,0.016010,-0.053357,0.000000,0.000000,
389408837,-0.001958,11.576504,1,-0.021423,0.021301,-0.005920,0.999512,-0.190000,-0.040000,0.050000,0.190081,0.047597,0.042419,0.035715,-0.046526,0.041363,0.000000,0.000000,
389417721,0.556605,11.557916,1,-0.019958,0.021240,-0.005920,0.999573,-0.220000,0.090000,-0.020000,0.222354,-0.080874,-0.030412,0.338027,0.398251,-0.029621,0.000000,0.000000,
389426596,0.280879,11.562563,1,-0.018555,0.021240,-0.005920,0.999573,-0.130000,0.070000,0.020000,0.133220,-0.065310,0.013605,0.308489,0.355171,0.013129,0.000000,0.000000,
389439107,0.643764,11.562563,1,-0.017151,0.021240,-0.005859,0.999634,0.200000,0.310000,-0.110000,-0.193862,-0.315525,-0.105298,0.507499,0.593575,-0.103993,0.000000,0.000000,
389448066,0.099452,11.562563,1,-0.015808,0.021301,-0.005859,0.999634,0.150000,0.490000,-0.100000,-0.138704,-0.493401,-0.099612,0.275643,0.243889,-0.099660,0.000000,0.000000,
389456960,0.092326,11.571857,1,-0.014465,0.021423,-0.005798,0.999634,0.170000,0.790000,-0.010000,-0.147542,-0.794417,-0.012385,0.171704,0.104445,-0.013347,0.000000,0.000000,
389469307,0.462321,11.562563,1,-0.012695,0.021423,-0.005798,0.999695,-0.150000,0.860000,0.050000,0.173592,-0.856448,0.033110,0.341642,0.313579,0.032598,0.000000,0.000000,
389477922,0.280879,11.562563,1,-0.010315,0.021423,-0.005615,0.999695,0.490000,1.160000,-0.040000,-0.467507,-1.169441,-0.032565,0.309051,0.261644,-0.031847,0.000000,0.000000,
389486807,0.186595,11.567210,1,-0.007080,0.021423,-0.005493,0.999756,0.560000,0.980000,-0.020000,-0.546702,-0.987789,-0.007097,0.240544,0.170469,-0.007370,0.000000,0.000000,
389499206,-0.364308,11.576504,1,-0.003052,0.021484,-0.005371,0.999756,0.520000,0.670000,-0.080000,-0.519028,-0.672409,-0.064884,-0.108261,-0.261024,-0.064250,0.000000,0.000000,
389508145,0.099452,11.562563,1,0.001831,0.021545,-0.005310,0.999756,0.070000,0.570000,-0.100000,-0.076459,-0.568663,-0.102892,0.010101,-0.085155,-0.102466,0.000000,0.000000,
389516754,-0.175740,11.567210,1,0.008057,0.021667,-0.005127,0.999695,0.280000,0.200000,0.070000,-0.279912,-0.196238,0.080103,-0.098150,-0.225597,0.078092,0.000000,0.000000,
389529137,-0.364308,11.576504,1,0.015320,0.021729,-0.005005,0.999634,-0.060000,-0.140000,-0.040000,0.062502,0.138529,-0.041268,-0.255324,-0.414367,-0.039953,0.000000,0.000000,
389538050,0.092326,11.571857,1,0.023010,0.021790,-0.004822,0.999512,-0.100000,-0.460000,-0.190000,0.112831,0.456982,-0.190216,-0.057036,-0.120679,-0.188560,0.000000,0.000000,
389546962,0.186595,11.567210,1,0.031006,0.021790,-0.004639,0.999268,-0.730000,-1.480000,-0.210000,0.810818,1.434214,-0.230070,0.082884,0.062084,-0.229613,0.000000,0.000000,
389559329,-0.175740,11.567210,1,0.039001,0.021851,-0.004395,0.998962,-1.170000,-1.310000,-0.100000,1.263190,1.215921,-0.142110,-0.066454,-0.126145,-0.143074,0.000000,0.000000,
389568141,0.092326,11.571857,1,0.045898,0.021851,-0.004272,0.998718,-1.100000,-1.670000,-0.030000,1.246523,1.562713,-0.067509,0.024694,0.009116,-0.068342,0.000000,0.000000,
389577003,0.462321,11.562563,1,0.049988,0.021912,-0.004333,0.998474,-0.600000,-1.270000,0.040000,0.725113,1.203260,0.021655,0.278024,0.340727,0.020663,0.000000,0.000000,
389589329,-0.001958,11.576504,1,0.051880,0.021973,-0.004395,0.998413,-0.320000,-0.710000,0.060000,0.394278,0.672430,0.050365,0.119764,0.140057,0.050038,0.000000,0.000000,
389597871,-0.175740,11.567210,1,0.052185,0.022095,-0.004395,0.998413,-0.130000,0.220000,0.000000,0.106213,-0.232341,-0.007218,-0.050663,-0.112342,-0.006587,0.000000,0.000000,
389606481,0.092326,11.571857,1,0.051270,0.022095,-0.004333,0.998413,-0.320000,0.060000,0.020000,0.312702,-0.092596,0.005336,0.031048,-0.005685,0.005205,0.000000,0.000000,
389619202,0.549464,11.567210,1,0.050049,0.022095,-0.004395,0.998474,-0.250000,-0.160000,0.020000,0.265381,0.134023,0.009889,0.331728,0.359350,0.009838,0.000000,0.000000,
389628122,-0.001958,11.576504,1,0.049011,0.022095,-0.004333,0.998535,-0.150000,-0.290000,-0.010000,0.177131,0.274040,-0.014791,0.140928,0.070198,-0.014519,0.000000,0.000000,
389637005,-0.277669,11.581151,1,0.048096,0.022095,-0.004333,0.998596,-0.070000,-0.260000,0.020000,0.095508,0.251869,0.018559,-0.100787,-0.251086,0.018195,0.000000,0.000000,
389649210,0.092326,11.571857,1,0.046814,0.022034,-0.004395,0.998657,0.130000,0.950000,-0.110000,-0.223114,-0.932501,-0.110493,0.008211,-0.112289,-0.109075,0.000000,0.000000,
389658180,-0.096745,11.581151,1,0.044922,0.021973,-0.004395,0.998718,0.310000,1.120000,-0.070000,-0.412181,-1.086834,-0.063822,-0.053789,-0.202418,-0.064321,0.000000,0.000000,
389667070,0.186595,11.567210,1,0.042969,0.021912,-0.004395,0.998840,0.480000,0.970000,-0.050000,-0.563413,-0.924792,-0.035447,0.083560,-0.018789,-0.035765,0.000000,0.000000,
389679339,0.186595,11.567210,1,0.041504,0.021912,-0.004395,0.998901,0.030000,0.060000,0.040000,-0.033120,-0.057736,0.040867,0.143131,0.056448,0.040022,0.000000,0.000000,
389688159,0.455180,11.571857,1,0.041077,0.021912,-0.004456,0.998901,-0.350000,-0.220000,-0.040000,0.364837,0.191019,-0.053847,0.324944,0.323277,-0.052813,0.000000,0.000000,
389700289,-0.182881,11.576504,1,0.041870,0.021912,-0.004517,0.998901,-0.550000,-0.400000,-0.100000,0.576806,0.353815,-0.121309,0.033703,-0.064412,-0.120554,0.000000,0.000000,
389708786,-0.001958,11.576504,1,0.043518,0.021912,-0.004456,0.998779,-0.670000,-0.620000,-0.020000,0.719907,0.559674,-0.045230,0.012435,-0.095623,-0.046060,0.000000,0.000000,
389717651,-0.088597,11.571857,1,0.045044,0.021912,-0.004395,0.998718,-0.430000,-0.600000,0.010000,0.482346,0.558789,-0.004918,-0.046857,-0.171365,-0.005371,0.000000,0.000000,
389729544,0.092326,11.571857,1,0.045959,0.021912,-0.004395,0.998718,-0.260000,-0.160000,-0.030000,0.272096,0.135839,-0.040372,0.031814,-0.071949,-0.039987,0.000000,0.000000,
389738246,0.368037,11.567210,1,0.046021,0.021912,-0.004395,0.998718,-0.230000,0.250000,-0.030000,0.204501,-0.269733,-0.041820,0.226351,0.209280,-0.041800,0.000000,0.000000,
389747148,-0.001958,11.576504,1,0.045654,0.021912,-0.004395,0.998718,-0.320000,0.320000,-0.030000,0.287829,-0.347464,-0.046273,0.096147,0.038107,-0.046223,0.000000,0.000000,
389759333,0.817546,11.571857,1,0.045105,0.021912,-0.004395,0.998718,-0.050000,0.320000,-0.080000,0.017384,-0.322302,-0.084305,0.515123,0.556403,-0.083885,0.000000,0.000000,
389768306,0.186595,11.567210,1,0.044678,0.021912,-0.004456,0.998779,0.120000,0.250000,-0.100000,-0.146117,-0.237248,-0.096335,0.329219,0.275477,-0.096198,0.000000,0.000000,
389777209,0.455180,11.571857,1,0.044617,0.021912,-0.004456,0.998779,0.020000,0.290000,-0.060000,-0.048408,-0.286433,-0.061071,0.404587,0.371523,-0.061458,0.000000,0.000000,
389796580,0.360896,11.576504,1,0.045288,0.021912,-0.004395,0.998718,-0.030000,0.640000,-0.110000,-0.032941,-0.638860,-0.115563,0.386177,0.337467,-0.114966,0.000000,0.000000,
389805847,-0.357167,11.567210,1,0.046021,0.021912,-0.004395,0.998718,0.040000,0.490000,-0.020000,-0.085801,-0.484075,-0.021526,-0.049551,-0.526181,-0.022556,0.000000,0.000000,
389815455,-0.357167,11.567210,1,0.047241,0.021912,-0.004395,0.998657,0.070000,0.010000,0.050000,-0.068405,-0.003907,0.052976,-0.233966,-0.803086,0.052143,0.000000,0.000000,
389828052,0.092326,11.571857,1,0.048828,0.022034,-0.004395,0.998535,-0.210000,-0.190000,0.050000,0.229522,0.168089,0.041877,-0.053857,-0.539074,0.041991,0.000000,0.000000,
389836935,0.280879,11.562563,1,0.050720,0.021973,-0.004456,0.998474,-0.540000,-0.430000,0.030000,0.581668,0.372870,0.008899,0.136258,-0.239348,0.009264,0.000000,0.000000,
389846072,0.273753,11.571857,1,0.052612,0.021973,-0.004456,0.998352,-0.640000,-0.420000,-0.060000,0.677410,0.351204,-0.085553,0.213722,-0.133974,-0.084508,0.000000,0.000000,
389858798,-0.175740,11.567210,1,0.054138,0.022034,-0.004395,0.998291,-0.430000,-0.180000,-0.080000,0.443090,0.133442,-0.097891,-0.014258,-0.420277,-0.097743,0.000000,0.000000,
389867673,0.368037,11.567210,1,0.054993,0.022034,-0.004395,0.998230,-0.100000,0.150000,-0.060000,0.080188,-0.159372,-0.065339,0.204337,-0.088599,-0.065696,0.000000,0.000000,
389876558,-0.277669,11.581151,1,0.055298,0.022034,-0.004395,0.998230,-0.200000,0.150000,-0.020000,0.181134,-0.170902,-0.029825,-0.075465,-0.455650,-0.030221,0.000000,0.000000,
389889135,0.455180,11.571857,1,0.055481,0.022034,-0.004395,0.998230,-0.220000,-0.090000,0.000000,0.228439,0.065125,-0.009215,0.226816,-0.075449,-0.009447,0.000000,0.000000,
389898083,0.186595,11.567210,1,0.055847,0.022034,-0.004395,0.998169,-0.140000,-0.310000,-0.020000,0.172733,0.292676,-0.024250,0.202759,-0.110141,-0.024087,0.000000,0.000000,
389906951,-0.001958,11.576504,1,0.056396,0.022034,-0.004395,0.998169,-0.250000,-0.460000,0.020000,0.300929,0.428757,0.011752,0.083291,-0.265564,0.011357,0.000000,0.000000,
389919282,0.273753,11.571857,1,0.057007,0.022034,-0.004333,0.998108,-0.940000,-1.560000,0.080000,1.114230,1.442036,0.047686,0.190535,-0.128588,0.047286,0.000000,0.000000,
389927853,0.273753,11.571857,1,0.057434,0.022095,-0.004333,0.998108,-0.510000,-0.330000,-0.070000,0.541008,0.270236,-0.090660,0.237755,-0.058857,-0.089140,0.000000,0.000000,
389936477,0.368037,11.567210,1,0.057007,0.022095,-0.004333,0.998108,-0.370000,-0.670000,-0.200000,0.434867,0.625788,-0.212191,0.312562,0.035756,-0.210835,0.000000,0.000000,
389949200,-0.182881,11.576504,1,0.054993,0.022034,-0.004395,0.998230,-0.430000,-0.750000,-0.220000,0.499892,0.700759,-0.234139,0.025621,-0.313273,-0.233882,0.000000,0.000000,
389958155,0.266109,11.581151,1,0.052246,0.022034,-0.004395,0.998352,-0.040000,0.680000,0.000000,-0.031331,-0.680347,-0.006179,0.162612,-0.106849,-0.008688,0.000000,0.000000,
389967001,0.092326,11.571857,1,0.048645,0.021973,-0.004395,0.998535,0.230000,0.680000,0.040000,-0.293116,-0.654812,0.045637,0.120985,-0.160039,0.045038,0.000000,0.000000,
389979188,-0.001958,11.576504,1,0.044617,0.021973,-0.004456,0.998779,0.390000,0.770000,-0.260000,-0.468197,-0.729480,-0.247809,0.047688,-0.251344,-0.244582,0.000000,0.000000,
389988119,0.280879,11.562563,1,0.041565,0.021973,-0.004395,0.998901,0.480000,1.290000,-0.330000,-0.599645,-1.242314,-0.317392,0.180894,-0.057232,-0.316589,0.000000,0.000000,
389997002,0.636622,11.571857,1,0.039368,0.021973,-0.004333,0.998962,0.570000,1.190000,0.260000,-0.650156,-1.144190,0.276712,0.444127,0.289960,0.270174,0.000000,0.000000,
390009350,0.179469,11.576504,1,0.038025,0.022034,-0.004395,0.999023,-0.090000,0.280000,0.060000,0.070946,-0.286626,0.053958,0.294137,0.100585,0.056340,0.000000,0.000000,
390018195,0.092326,11.571857,1,0.037964,0.022095,-0.004395,0.999023,-0.310000,0.040000,-0.270000,0.293930,-0.060514,-0.283799,0.177757,-0.074002,-0.280051,0.000000,0.000000,
390027061,-0.001958,11.576504,1,0.038879,0.022095,-0.004395,0.998962,-0.530000,-0.160000,-0.440000,0.521009,0.123045,-0.462001,0.073084,-0.214109,-0.459996,0.000000,0.000000,
390039362,-0.182881,11.576504,1,0.039673,0.022034,-0.004395,0.998962,-0.350000,-0.140000,-0.390000,0.342653,0.115987,-0.404151,-0.078101,-0.402928,-0.404767,0.000000,0.000000,
390047896,0.179469,11.576504,1,0.040100,0.022034,-0.004456,0.998962,-0.530000,-0.110000,-1.410000,0.475090,0.082336,-1.431311,0.067985,-0.195824,-1.419999,0.000000,0.000000,
390056733,-0.001958,11.576504,1,0.040466,0.022156,-0.004517,0.998901,-0.360000,-0.370000,-1.130000,0.338816,0.351929,-1.142236,0.025759,-0.257936,-1.145296,0.000000,0.000000,
390068856,-0.001958,11.576504,1,0.040894,0.022217,-0.004578,0.998901,-0.500000,-0.020000,-0.860000,0.461614,-0.011387,-0.881348,0.006493,-0.288376,-0.884257,0.000000,0.000000,
390077711,0.266109,11.581151,1,0.041077,0.022217,-0.004700,0.998901,0.020000,-0.090000,-0.570000,-0.037588,0.097723,-0.567836,0.154692,-0.074549,-0.571323,0.000000,0.000000,
390086624,0.273753,11.571857,1,0.041077,0.022217,-0.004883,0.998901,0.080000,0.350000,-0.270000,-0.120326,-0.339134,-0.268913,0.222912,0.012956,-0.272246,0.000000,0.000000,
390099191,-0.096745,11.581151,1,0.041077,0.022278,-0.004944,0.998901,-0.550000,-0.620000,3.380000,0.747687,0.533309,3.356767,0.037784,-0.175627,3.316776,0.000000,0.000000,
390108106,-0.088597,11.571857,1,0.041260,0.022400,-0.004822,0.998901,0.180000,-0.080000,1.790000,-0.093215,0.073976,1.796870,-0.037192,-0.269237,1.813619,0.000000,0.000000,
390117001,-0.096745,11.581151,1,0.041931,0.022644,-0.004456,0.998840,1.040000,1.090000,-0.700000,-1.158147,-0.991599,-0.659453,-0.074093,-0.320852,-0.632200,0.000000,0.000000,
390129362,-0.182881,11.576504,1,0.043396,0.022827,-0.004211,0.998779,-1.070000,-0.390000,0.020000,1.099604,0.295747,-0.026695,-0.141209,-0.400236,-0.033367,0.000000,0.000000,
390138060,-0.364308,11.576504,1,0.043640,0.022583,-0.004517,0.998779,0.590000,-0.830000,0.720000,-0.482425,0.870193,0.751937,-0.274294,-0.585644,0.743283,0.000000,0.000000,
390146970,-0.096745,11.581151,1,0.043823,0.022461,-0.004578,0.998779,-1.780000,-1.060000,0.470000,1.885297,0.895220,0.396535,-0.176755,-0.447810,0.400356,0.000000,0.000000,
390159360,0.447536,11.581151,1,0.044739,0.022339,-0.004578,0.998718,-0.490000,0.130000,-0.030000,0.474540,-0.172817,-0.052962,0.180021,0.002727,-0.047967,0.000000,0.000000,
390168362,-0.001958,11.576504,1,0.045105,0.022400,-0.004456,0.998718,-0.360000,-0.640000,-0.140000,0.409750,0.606530,-0.151703,0.074251,-0.155321,-0.150560,0.000000,0.000000,
390176970,0.360896,11.576504,1,0.044922,0.022522,-0.004456,0.998718,-0.410000,-1.110000,-0.190000,0.499266,1.070808,-0.200776,0.238807,0.063773,-0.200222,0.000000,0.000000,
390189163,0.266109,11.581151,1,0.044006,0.022522,-0.004395,0.998779,-0.830000,-0.470000,-2.210000,0.768819,0.419167,-2.242140,0.255253,0.056055,-2.219639,0.000000,0.000000,
390198103,0.556605,11.557916,1,0.041992,0.022522,-0.004456,0.998840,-0.680000,-0.540000,-2.160000,0.625908,0.504449,-2.184787,0.430746,0.292729,-2.185171,0.000000,0.000000,
390206968,-0.182881,11.576504,1,0.039551,0.022522,-0.004517,0.998962,-0.640000,-1.160000,-2.610000,0.612760,1.134125,-2.627872,0.078073,-0.199253,-2.622993,0.000000,0.000000,
390219360,0.266109,11.581151,1,0.036499,0.022461,-0.004578,0.999084,-0.450000,-2.150000,-4.080000,0.423866,2.155582,-4.079918,0.184431,-0.113451,-4.063863,0.000000,0.000000,
390228180,-0.096745,11.581151,1,0.031494,0.022400,-0.004822,0.999268,-1.050000,-0.370000,-4.730000,0.860031,0.355680,-4.769314,0.019823,-0.398307,-4.761540,0.000000,0.000000,
390237062,0.179469,11.576504,1,0.024109,0.022156,-0.005554,0.999451,-0.990000,-1.080000,-0.750000,1.007184,1.040350,-0.782490,0.108663,-0.283218,-0.826338,0.000000,0.000000,
390249362,0.266109,11.581151,1,0.010925,0.021790,-0.006653,0.999695,3.860000,5.200000,2.970000,-3.841768,-5.156312,3.068949,0.196794,-0.131269,3.026024,0.000000,0.000000,
390257892,0.266109,11.581151,1,-0.003967,0.021301,-0.007751,0.999756,-0.160000,0.540000,3.390000,0.308564,-0.590610,3.371251,0.236061,-0.042856,3.367446,0.000000,0.000000,
390266664,-0.182881,11.576504,1,-0.013306,0.021545,-0.007996,0.999634,0.010000,1.640000,6.340000,0.307520,-1.737102,6.306576,-0.006391,-0.302150,6.274187,0.000000,0.000000,
390286535,-0.096745,11.581151,1,-0.012939,0.023315,-0.006104,0.999634,2.120000,2.850000,-0.430000,-2.064248,-2.899383,-0.367511,-0.065374,-0.373366,-0.294321,0.000000,0.000000,
390295825,-0.088597,11.571857,1,-0.013916,0.023499,-0.006104,0.999634,1.220000,1.460000,-0.800000,-1.215823,-1.484528,-0.760719,-0.082600,-0.407859,-0.755580,0.000000,0.000000,
390308153,0.368037,11.567210,1,-0.017273,0.022949,-0.007019,0.999573,0.170000,-0.900000,0.090000,-0.196363,0.892294,0.110997,0.176351,0.003539,0.101447,0.000000,0.000000,
390317053,0.455180,11.571857,1,-0.019958,0.022583,-0.007324,0.999512,0.100000,-0.780000,0.280000,-0.117955,0.771403,0.296293,0.338985,0.264390,0.294146,0.000000,0.000000,
390326056,-0.182881,11.576504,1,-0.020386,0.022034,-0.007629,0.999512,-0.350000,-0.680000,-0.170000,0.314334,0.696153,-0.174141,0.038906,-0.147001,-0.168980,0.000000,0.000000,
390338913,0.368037,11.567210,1,-0.018921,0.021729,-0.007629,0.999573,0.020000,0.150000,0.270000,-0.002538,-0.154545,0.268165,0.228283,0.097090,0.263348,0.000000,0.000000,
390347815,-0.088597,11.571857,1,-0.019287,0.021545,-0.007690,0.999573,-1.130000,1.350000,0.210000,1.188916,-1.308056,0.139566,0.044819,-0.178513,0.140930,0.000000,0.000000,
390356708,0.455180,11.571857,1,-0.021362,0.021362,-0.007690,0.999512,-0.270000,0.950000,0.330000,0.323962,-0.942165,0.302747,0.280816,0.137463,0.300964,0.000000,0.000000,
390369183,-0.175740,11.567210,1,-0.023865,0.021301,-0.007751,0.999451,-0.130000,0.600000,0.630000,0.185212,-0.602103,0.613959,0.017592,-0.182465,0.610510,0.000000,0.000000,
390377844,0.005168,11.567210,1,-0.025085,0.021423,-0.007812,0.999451,0.030000,0.270000,0.450000,0.002957,-0.277713,0.446298,0.008810,-0.189195,0.448108,0.000000,0.000000,
390386686,-0.001958,11.576504,1,-0.024475,0.021667,-0.007690,0.999451,-1.010000,-0.130000,-0.280000,0.989352,0.183593,-0.320932,0.000896,-0.200052,-0.312457,0.000000,0.000000,
390399147,0.273753,11.571857,1,-0.021912,0.022034,-0.007446,0.999512,0.240000,0.420000,-0.420000,-0.239935,-0.424333,-0.415710,0.156666,-0.011926,-0.414572,0.000000,0.000000,
390408076,-0.451451,11.571857,1,-0.019104,0.022339,-0.007019,0.999573,0.430000,1.060000,-0.220000,-0.399041,-1.072905,-0.216450,-0.196809,-0.530378,-0.218633,0.000000,0.000000,
390416952,-0.182881,11.576504,1,-0.017761,0.022400,-0.006714,0.999573,-0.720000,-0.140000,0.010000,0.714356,0.165557,-0.020091,-0.193457,-0.520024,-0.022279,0.000000,0.000000,
390429338,-0.088597,11.571857,1,-0.016785,0.022339,-0.006714,0.999573,-0.790000,-1.150000,0.360000,0.766636,1.171366,0.340804,-0.139025,-0.440785,0.336803,0.000000,0.000000,
390438147,-0.182881,11.576504,1,-0.015991,0.022339,-0.006836,0.999573,0.540000,-0.380000,0.600000,-0.524234,0.354531,0.628807,-0.168363,-0.472524,0.625589,0.000000,0.000000,
390447042,-0.001958,11.576504,1,-0.016235,0.022339,-0.007080,0.999573,0.030000,-0.290000,0.780000,-0.004259,0.278336,0.784791,-0.076248,-0.340369,0.783037,0.000000,0.000000,
390459339,-0.088597,11.571857,1,-0.017639,0.022278,-0.007263,0.999573,0.130000,-0.330000,0.530000,-0.117581,0.317858,0.540225,-0.087558,-0.342553,0.542901,0.000000,0.000000,
390468063,-0.001958,11.576504,1,-0.020386,0.022034,-0.007507,0.999512,-2.290000,-0.690000,-0.570000,2.232616,0.791443,-0.658571,-0.040854,-0.275785,-0.645332,0.000000,0.000000,
390476978,-0.182881,11.576504,1,-0.023193,0.021790,-0.007751,0.999451,-0.680000,0.210000,-1.840000,0.607450,-0.151333,-1.870871,-0.125556,-0.398750,-1.857366,0.000000,0.000000,
390489337,0.179469,11.576504,1,-0.025818,0.021423,-0.007935,0.999390,-1.280000,-0.500000,-0.750000,1.218982,0.576792,-0.795020,0.046439,-0.190290,-0.806727,0.000000,0.000000,
390498158,0.092326,11.571857,1,-0.028198,0.020996,-0.008118,0.999329,-0.790000,-0.900000,0.400000,0.754536,0.937154,0.382472,0.071437,-0.147789,0.369368,0.000000,0.000000,
390506752,-0.640508,11.581151,1,-0.030518,0.021057,-0.007996,0.999268,-0.380000,0.600000,0.960000,0.456197,-0.589577,0.932861,-0.341618,-0.677370,0.926651,0.000000,0.000000,
390519048,-0.459081,11.581151,1,-0.033081,0.021362,-0.007996,0.999207,-0.040000,0.810000,0.540000,0.116489,-0.813377,0.523664,-0.418024,-0.753780,0.528105,0.000000,0.000000,
390527979,-0.270024,11.571857,1,-0.036255,0.021545,-0.008118,0.999084,0.680000,1.370000,0.500000,-0.557012,-1.423086,0.503982,-0.338760,-0.624068,0.504248,0.000000,0.000000,
390536863,-0.191030,11.585798,1,-0.038696,0.021790,-0.008118,0.998962,1.390000,1.460000,0.190000,-1.263667,-1.566047,0.223292,-0.258800,-0.510029,0.226388,0.000000,0.000000,
390549283,-0.001958,11.576504,1,-0.039001,0.021973,-0.007996,0.998962,1.340000,0.950000,-0.270000,-1.272942,-1.048012,-0.228519,-0.116088,-0.327811,-0.223506,0.000000,0.000000,
390558105,-0.001958,11.576504,1,-0.037354,0.022217,-0.007568,0.999023,0.640000,0.770000,-0.110000,-0.585310,-0.814254,-0.094753,-0.052658,-0.230650,-0.096172,0.000000,0.000000,
390566989,0.092326,11.571857,1,-0.036255,0.022339,-0.006958,0.999084,0.350000,0.130000,-0.110000,-0.344341,-0.153767,-0.096451,0.029198,-0.121374,-0.096448,0.000000,0.000000,
