Code compiled on Mar 13 2026 at 16:53:56
﻿Simulation Mode (T/F),F
Airbrakes Enabled (T/F),T
Log File Name,RF
Sim File Name (if applicable),Sim
Burnout Mass (kg),0.583
Air Density (kg/m^3),1.237
Rocket CD,0.55
Airbrake CD,0.8
Rocket Area (m^2),0.00243
Kalman Model Y STD,0.2
Kalman Model V STD,0.5
Kalman Model A STD,0.5
Kalman Measurement Y STD,5
Kalman Measurement A STD,0.5
Target Apogee (m),228.6
Launch Acceleration Threshold (m/s^2),40
Coast Lockout (s),1.5
KP (1/s),0.24
Altimeter Lockout (s),60
Control Max Velocity (dep/s),2

Calibration point: 244.632385
Time (us),Altitude AGL (m),Temperature (deg C),Mode,IMU Quat W,IMU Quat X,IMU Quat Y,IMU Quat Z,IMU Raw Local Acceleration X,IMU Raw Local Acceleration Y,IMU Raw Local Acceleration Z,IMU Global Acceleration x,IMU Global Acceleration y,IMU Global Acceleration z,State Estimation y,State Estimation v,State Estimation a,Commanded servo deployment,Real servo deployment,
231745698,-0.427063,14.306314,1,-0.822876,0.006165,-0.005493,0.568176,-1.091170,-0.122255,37.159428,0.094781,1.121860,27.357259,-0.335754,0.415234,19.999883,0.000000,0.000000,
231755675,-0.820862,14.306314,2,-0.822876,0.006165,-0.005493,0.568176,-1.438442,-0.380044,88.872421,0.560471,1.557124,79.068132,-0.373981,1.135287,63.240842,0.000000,0.000000,
231767684,-1.315537,14.301770,2,-0.822937,0.006165,-0.005493,0.568054,-4.617288,-4.571850,97.605378,-4.345787,3.077193,87.875069,-0.447226,2.047811,81.274347,0.000000,0.000000,
231776668,-0.726135,14.301770,2,-0.823242,0.006104,-0.005737,0.567566,-4.685522,-0.077097,101.308743,-0.083503,4.713332,91.506276,-0.452636,2.837393,88.764639,0.000000,0.000000,
231787475,-0.340058,14.292683,2,-0.823975,0.006104,-0.005676,0.566528,-3.917142,2.959914,102.586351,3.026903,5.092175,92.731515,-0.405147,3.854010,91.668594,0.000000,0.000000,
231796707,-0.528977,14.301770,2,-0.822876,0.006287,-0.005371,0.568176,-5.977840,-2.247506,102.998541,-2.576587,5.236668,93.230255,-0.377962,4.697741,92.811809,0.000000,0.000000,
231806326,-0.238129,14.297227,2,-0.821350,0.006287,-0.005188,0.570435,-4.668159,-0.812917,103.917389,-0.770437,4.548692,94.121942,-0.314358,5.622721,93.770893,0.000000,0.000000,
231817412,-1.016983,14.306314,2,-0.820496,0.006165,-0.005310,0.571655,-3.028264,1.975647,103.876132,2.431277,3.948312,94.034296,-0.316828,6.566495,93.963717,0.000000,0.000000,
231826922,-0.238129,14.297227,2,-0.819580,0.005920,-0.005371,0.572937,-1.109737,1.249234,103.133507,2.391195,1.844717,93.301610,-0.242267,7.464776,93.479021,0.000000,0.000000,
231836669,-0.536194,14.292683,2,-0.817383,0.005493,-0.005310,0.576050,-4.709010,1.715325,105.150116,1.601403,5.312762,95.322002,-0.194482,8.352290,94.828176,0.000000,0.000000,
231847451,-0.143402,14.292683,2,-0.814636,0.004883,-0.005005,0.579956,-5.569412,-0.249384,106.001351,-0.599551,5.411730,96.207409,-0.093647,9.396440,95.837845,0.000000,0.000000,
231856896,-0.536194,14.292683,2,-0.811890,0.004639,-0.005005,0.583801,-3.069870,0.386466,103.377959,0.786109,3.213708,93.570603,-0.045409,10.216455,94.178109,0.000000,0.000000,
231867763,-0.041474,14.297227,2,-0.808411,0.004395,-0.005066,0.588623,-6.973140,11.034835,103.469478,9.732776,10.149124,93.536249,0.071512,11.233670,93.708235,0.000000,0.000000,
231877101,0.154663,14.297227,2,-0.803162,0.004211,-0.004639,0.595703,-4.588966,1.523983,104.934931,1.433198,4.967146,95.118375,0.189002,12.134239,94.740529,0.000000,0.000000,
231886922,0.344116,14.288139,2,-0.797180,0.003784,-0.004150,0.603760,-4.569535,1.998372,104.859845,1.848013,5.054810,95.040007,0.328402,13.089645,94.959762,0.000000,0.000000,
231898021,0.446060,14.292683,2,-0.791565,0.003418,-0.004028,0.611023,-6.671320,-2.253077,105.757861,-2.754485,5.935723,95.989390,0.491508,14.171343,95.713502,0.000000,0.000000,
231907451,0.744659,14.297227,2,-0.785645,0.004395,-0.003784,0.618591,-4.478152,-0.711074,106.269464,-0.536963,4.426292,96.472220,0.655040,15.117602,96.268922,0.000000,0.000000,
231917156,0.642197,14.292683,2,-0.779785,0.005188,-0.003784,0.625977,-2.597601,1.217557,104.647348,1.919744,3.143335,94.820826,0.804878,16.035988,95.208842,0.000000,0.000000,
231927824,0.839386,14.292683,2,-0.773743,0.005920,-0.003662,0.633484,0.583688,-3.110749,104.201437,-1.565611,-0.723715,94.434479,0.984783,17.048503,94.641969,0.000000,0.000000,
231937299,0.650436,14.301770,2,-0.768250,0.006653,-0.003845,0.640137,-6.044616,-2.926322,105.305718,-2.456850,5.968835,95.520814,1.116875,17.906130,95.285328,0.000000,0.000000,
231947007,1.036056,14.292683,2,-0.763855,0.006592,-0.004333,0.645325,-4.625822,-3.101613,103.832615,-2.261735,4.498599,94.058395,1.286950,18.807806,94.387151,0.000000,0.000000,
231958018,1.428909,14.292683,2,-0.760254,0.006348,-0.004578,0.649597,-12.017069,4.844150,99.296075,4.417217,12.990497,89.391736,1.513636,19.813881,90.730253,0.000000,0.000000,
231967574,1.916504,14.288139,2,-0.755310,0.005554,-0.004700,0.655334,-4.209113,0.964242,97.987933,1.767562,4.519496,88.161771,1.747607,20.712954,88.849994,0.000000,0.000000,
231977410,3.686874,14.288139,2,-0.749451,0.004456,-0.004456,0.662048,-3.933850,-1.298578,104.459374,-0.464096,3.832248,94.669746,2.151816,21.918503,93.110348,0.000000,0.000000,
231988169,3.009170,14.301770,2,-0.744995,0.004150,-0.003967,0.666992,-6.181202,-0.019630,103.781811,0.484451,6.236923,93.976893,2.479688,23.050340,93.744704,0.000000,0.000000,
231997678,3.592117,14.292683,2,-0.746338,0.004395,-0.003662,0.665588,-5.453636,-0.294664,103.615240,0.256694,5.555413,93.809120,2.815478,24.100299,93.791860,0.000000,0.000000,
232007553,3.592117,14.292683,2,-0.750244,0.004028,-0.004028,0.661133,-5.662453,-0.958926,103.371692,-0.490318,5.577867,93.579336,3.136381,25.133911,93.636282,0.000000,0.000000,
232018512,4.465561,14.279051,2,-0.754517,0.003723,-0.003540,0.656250,-7.643483,-2.055350,105.915778,-2.012946,7.391897,96.134257,3.551914,26.373640,95.464927,0.000000,0.000000,
232028003,4.772018,14.292683,2,-0.758484,0.003479,-0.002502,0.651672,-4.531320,-0.826390,102.715652,-0.646382,4.554482,92.915267,3.929580,27.427687,93.598447,0.000000,0.000000,
232037719,4.378525,14.292683,2,-0.762329,0.003113,-0.000854,0.647156,-5.501633,-0.818978,102.664141,-1.160202,5.661349,92.851653,4.245716,28.393013,93.051756,0.000000,0.000000,
232048806,5.063019,14.288139,2,-0.765808,0.002869,0.001282,0.643066,-5.973659,-1.139711,101.913503,-1.985486,6.295794,92.080709,4.648663,29.528818,92.340900,0.000000,0.000000,
232058239,5.754761,14.292683,2,-0.769104,0.002686,0.004272,0.639099,-5.777826,-0.880514,101.274602,-2.236831,6.482712,91.410053,5.042970,30.547225,91.659473,0.000000,0.000000,
232067994,5.754761,14.292683,2,-0.772217,0.002502,0.007751,0.635315,-5.988733,-1.120788,101.815674,-3.138398,7.049543,91.903599,5.417130,31.543638,91.838186,0.000000,0.000000,
232078752,6.636108,14.288139,2,-0.775146,0.002380,0.011841,0.631714,-6.076351,-1.706108,100.678239,-4.438891,7.474637,90.697170,5.884691,32.690063,91.002904,0.000000,0.000000,
232088364,6.832901,14.288139,2,-0.777771,0.002380,0.016479,0.628357,-6.245314,-1.481124,100.273984,-5.021791,8.241116,90.209113,6.298745,33.690304,90.421809,0.000000,0.000000,
232098063,8.115692,14.292683,2,-0.780090,0.002441,0.021545,0.625244,-6.562331,-2.018588,98.792670,-6.405480,8.990860,88.613733,6.812754,34.803715,89.098206,0.000000,0.000000,
232109054,8.414001,14.297227,2,-0.782104,0.002502,0.027039,0.622559,-6.621211,-2.201777,99.228181,-7.508211,9.676245,88.911503,7.362159,36.003873,88.961530,0.000000,0.000000,
232118397,9.092056,14.283595,2,-0.783752,0.002625,0.032959,0.620178,-6.848495,-1.915591,97.987962,-8.169159,10.615419,87.526224,7.876824,37.063917,87.910813,0.000000,0.000000,
232128304,9.390396,14.288139,2,-0.785034,0.002808,0.039246,0.618164,-7.135779,-2.545953,97.126413,-9.775355,11.457571,86.449194,8.400690,38.131082,86.840834,0.000000,0.000000,
232139014,9.885574,14.292683,2,-0.786072,0.002991,0.045776,0.616455,-7.268055,-2.585536,97.023806,-10.837660,12.353800,86.131049,8.963673,39.259886,86.321235,0.000000,0.000000,
232148630,10.877563,14.301770,2,-0.786316,0.003296,0.052734,0.615601,-7.571132,-2.622924,96.998654,-11.975224,13.491403,85.837591,9.538102,40.352424,85.967184,0.000000,0.000000,
232158185,11.554230,14.288139,2,-0.786011,0.003601,0.059692,0.615295,-7.875085,-3.382294,96.097090,-13.715837,14.393727,84.607100,10.130451,41.440676,84.971534,0.000000,0.000000,
232169192,12.247436,14.292683,2,-0.785339,0.003967,0.066711,0.615417,-8.043534,-3.216735,95.692201,-14.545434,15.440903,83.914508,10.804878,42.657003,84.197738,0.000000,0.000000,
232178692,13.428314,14.292683,2,-0.784119,0.004333,0.073669,0.616150,-8.392483,-3.549455,94.836701,-15.807631,16.500350,82.695273,11.478164,43.807580,83.097858,0.000000,0.000000,
232189786,13.814422,14.283595,2,-0.782532,0.004700,0.080383,0.617371,-8.887636,-4.027429,94.184331,-17.194388,17.665018,81.626149,12.204685,45.036898,82.020493,0.000000,0.000000,
232199134,14.609344,14.292683,2,-0.780518,0.005127,0.086975,0.619019,-8.934394,-3.855866,93.497071,-17.775302,18.539708,80.625806,12.871655,46.125835,80.999512,0.000000,0.000000,
232208915,15.893097,14.297227,2,-0.778259,0.005615,0.093262,0.620972,-9.181457,-4.186019,92.972414,-18.839320,19.487382,79.703146,13.630783,47.323687,80.050507,0.000000,0.000000,
232219689,16.869659,14.288139,2,-0.775818,0.006226,0.099182,0.623047,-9.439347,-4.624612,92.486675,-19.909716,20.400619,78.805071,14.471435,48.619816,79.138785,0.000000,0.000000,
232229203,17.948974,14.283595,2,-0.773376,0.006836,0.104736,0.625183,-9.609166,-4.300584,92.083477,-20.171542,21.372660,78.093686,15.287815,49.845179,78.373720,0.000000,0.000000,
232239005,17.562713,14.292683,2,-0.770996,0.007690,0.109741,0.627258,-9.753743,-5.132998,90.946278,-21.326500,21.921905,76.558158,16.008886,50.909272,77.044637,0.000000,0.000000,
232250084,18.845795,14.297227,2,-0.768616,0.008606,0.114258,0.629333,-10.169115,-4.949549,90.158552,-21.504797,22.941489,75.452567,16.863180,52.135667,75.879162,0.000000,0.000000,
232259498,19.822662,14.288139,2,-0.766174,0.009644,0.118164,0.631592,-10.056000,-4.338643,89.951928,-21.143639,23.585754,75.092921,17.655418,53.252867,75.303594,0.000000,0.000000,
232269240,20.019714,14.288139,2,-0.763611,0.010681,0.121460,0.634033,-10.289650,-4.748751,89.366547,-21.690670,24.228130,74.206126,18.415504,54.301229,74.500193,0.000000,0.000000,
232280272,20.516418,14.292683,2,-0.761169,0.011963,0.124084,0.636475,-10.215203,-5.156402,88.302060,-21.970886,24.444718,72.947421,19.230436,55.394627,73.363485,0.000000,0.000000,
232289663,21.201996,14.288139,2,-0.758911,0.013306,0.125916,0.638733,-10.232928,-4.830446,88.207507,-21.607834,24.970013,72.767230,19.952353,56.350559,72.926996,0.000000,0.000000,
232299388,21.595581,14.288139,2,-0.756531,0.014587,0.127014,0.641357,-10.187335,-4.890457,86.259182,-21.203511,24.934108,70.803148,20.668841,57.264686,71.372232,0.000000,0.000000,
232310442,21.398529,14.288139,2,-0.753540,0.015686,0.127319,0.644714,-10.009761,-4.631405,85.591541,-20.567463,24.983611,70.198829,21.379516,58.140868,70.513241,0.000000,0.000000,
232319913,21.996948,14.297227,2,-0.750000,0.016724,0.126831,0.648926,-10.178553,-4.426229,85.187074,-19.955245,25.321993,69.825655,21.995425,58.887179,70.009893,0.000000,0.000000,
232329622,22.091888,14.292683,2,-0.745972,0.017517,0.125549,0.653748,-9.533361,-4.856411,84.311874,-19.700335,24.596930,69.123455,22.580085,59.571501,69.360975,0.000000,0.000000,
232340387,22.478302,14.283595,2,-0.741150,0.018127,0.123596,0.659607,-9.127367,-3.914014,82.869837,-17.945793,24.115940,68.054972,23.215040,60.290585,68.404915,0.000000,0.000000,
232349946,22.682617,14.292683,2,-0.735291,0.018372,0.120850,0.666626,-9.087195,-3.758444,82.622589,-17.101556,23.995438,68.010031,23.740903,60.867442,68.115839,0.000000,0.000000,
232360693,23.178955,14.297227,2,-0.728638,0.018311,0.117432,0.674500,-8.574672,-3.865991,82.201548,-16.389001,23.262569,67.893835,24.342436,61.520392,67.953321,0.000000,0.000000,
232370057,23.667572,14.292683,2,-0.721069,0.018066,0.113403,0.683289,-7.939824,-2.916186,80.699083,-14.409257,22.204891,66.903100,24.853538,62.053805,67.184506,0.000000,0.000000,
232379856,23.470978,14.292683,2,-0.712646,0.017700,0.108826,0.692749,-8.117409,-3.165887,80.349635,-13.764451,22.000040,66.742349,25.325952,62.519297,66.860824,0.000000,0.000000,
232390958,24.164978,14.297227,2,-0.703613,0.017151,0.103760,0.702759,-7.445775,-2.626868,79.374453,-12.212289,20.791171,66.236981,25.907391,63.097012,66.404139,0.000000,0.000000,
232400422,24.448273,14.283595,2,-0.693970,0.016602,0.098267,0.713074,-6.904760,-2.279708,78.897435,-10.898226,19.716468,66.155761,26.360737,63.522628,66.222313,0.000000,0.000000,
232410096,24.747558,14.288139,2,-0.683716,0.015930,0.092529,0.723694,-6.926355,-2.329084,77.930170,-9.918989,19.073418,65.458083,26.816284,63.935826,65.662858,0.000000,0.000000,
232420831,25.732727,14.288139,2,-0.672974,0.015259,0.086609,0.734436,-6.200813,-1.831061,76.863067,-8.465136,17.612587,64.816307,27.397483,64.484694,65.043139,0.000000,0.000000,
232430310,26.229736,14.292683,2,-0.661621,0.014526,0.080566,0.745361,-5.664670,-1.078063,75.402886,-6.760777,16.191457,63.757288,27.894226,64.929086,64.101831,0.000000,0.000000,
232439944,26.623535,14.292683,2,-0.649780,0.013855,0.074463,0.756348,-5.520042,-1.344020,74.691961,-6.122586,15.361705,63.256669,28.395177,65.365884,63.483129,0.000000,0.000000,
232450953,27.601135,14.283595,2,-0.637390,0.013245,0.068481,0.767334,-5.116659,-0.440051,74.326097,-4.448503,14.134168,63.208999,29.038887,65.954447,63.282452,0.000000,0.000000,
232460555,27.608856,14.292683,2,-0.624512,0.012573,0.062683,0.778381,-4.655518,-0.054513,73.665718,-3.353712,12.876084,62.803457,29.531385,66.362084,62.931803,0.000000,0.000000,
232470367,29.083191,14.288139,2,-0.611084,0.012024,0.057251,0.789429,-4.545631,-0.328955,73.065027,-2.892142,12.136967,62.338871,30.140528,66.912860,62.497747,0.000000,0.000000,
232480917,29.280395,14.288139,2,-0.597168,0.011414,0.052246,0.800354,-4.251534,0.281145,71.960793,-1.682209,10.976152,61.420341,30.763486,67.444516,61.709031,0.000000,0.000000,
232490624,30.652191,14.279051,2,-0.582764,0.010864,0.047791,0.811157,-4.050098,0.327345,70.835532,-1.086634,10.100613,60.423407,31.409795,68.015676,60.767889,0.000000,0.000000,
232500324,31.346161,14.283595,2,-0.567688,0.010315,0.044067,0.822021,-3.911754,0.258397,70.018301,-0.681927,9.441302,59.685705,32.065936,68.585950,59.975675,0.000000,0.000000,
232511324,31.842926,14.288139,2,-0.551941,0.009705,0.041138,0.832825,-3.673554,0.720024,68.875760,0.087753,8.546615,58.640680,32.801497,69.201316,58.998391,0.000000,0.000000,
232520984,32.828735,14.288139,2,-0.535583,0.009094,0.039062,0.843567,-3.946754,0.375320,67.878196,0.223268,8.538661,57.653720,33.475358,69.761610,58.014024,0.000000,0.000000,
232530731,33.617889,14.288139,2,-0.518433,0.008423,0.037903,0.854248,-4.309850,0.120631,66.895801,0.438387,8.665845,56.670747,34.172276,70.333269,57.030677,0.000000,0.000000,
232541677,33.712402,14.283595,2,-0.500671,0.007629,0.037598,0.864807,-4.237440,0.186383,66.606563,0.643612,8.406639,56.407456,34.899315,70.888679,56.574447,0.000000,0.000000,
232551022,34.508850,14.292683,2,-0.482178,0.006836,0.038208,0.875183,-4.196804,-0.265869,65.029731,0.398165,8.451543,54.813834,35.524875,71.347031,55.285589,0.000000,0.000000,
232560887,35.589477,14.288139,2,-0.463135,0.005920,0.039490,0.885376,-4.277296,-0.670652,64.120939,0.218990,8.720031,53.870853,36.237770,71.887285,54.249930,0.000000,0.000000,
232571846,36.575683,14.288139,2,-0.443542,0.004761,0.041321,0.895264,-4.063666,-0.579258,63.548582,0.217661,8.540290,53.301179,37.062685,72.517366,53.555396,0.000000,0.000000,
232581361,37.759857,14.288139,2,-0.423523,0.003357,0.043640,0.904846,-4.181009,-1.389564,62.657176,-0.316187,9.210686,52.334347,37.825045,73.109985,52.661526,0.000000,0.000000,
232591053,39.045959,14.292683,2,-0.403076,0.001770,0.046204,0.914001,-3.873419,-1.518129,60.991681,-0.580179,9.102559,50.646716,38.658421,73.766178,51.186583,0.000000,0.000000,
232602109,39.440246,14.292683,2,-0.382324,0.000000,0.049011,0.922729,-3.791172,-1.379630,60.080547,-0.542885,9.069426,49.728799,39.555472,74.422012,50.119411,0.000000,0.000000,
232611495,41.018585,14.292683,2,-0.361267,-0.001831,0.051819,0.931030,-3.894552,-2.111843,59.090507,-0.952740,9.784538,48.631944,40.403040,75.077322,49.030510,0.000000,0.000000,
232622513,42.289062,14.279051,2,-0.339905,-0.003662,0.054504,0.938843,-3.740518,-2.564064,57.606919,-1.290150,10.087864,47.083886,41.422521,75.851851,47.605483,0.000000,0.000000,
232631696,44.168732,14.283595,2,-0.318237,-0.005493,0.057068,0.946289,-3.573797,-2.640274,58.032559,-1.451273,10.303038,47.460025,42.396957,76.662384,47.499001,0.000000,0.000000,
232641440,45.258118,14.288139,2,-0.296143,-0.007202,0.059509,0.953247,-3.610955,-2.725225,58.408768,-1.418604,10.643574,47.790539,43.433169,77.514743,47.712422,0.000000,0.000000,
232652178,45.755524,14.292683,2,-0.273743,-0.008850,0.061523,0.959778,-3.288897,-2.952738,54.835564,-1.531880,10.423037,44.188908,44.500978,78.303125,45.133031,0.000000,0.000000,
232661818,47.422211,14.279051,2,-0.250854,-0.010437,0.063110,0.965881,-3.079911,-2.616817,54.927604,-1.419371,10.165012,44.310555,45.551052,79.126330,44.530937,0.000000,0.000000,
232671526,47.722198,14.283595,2,-0.227356,-0.011841,0.064148,0.971619,-2.579486,-2.756600,52.324314,-1.630072,9.828686,41.701865,46.538759,79.824198,42.459913,0.000000,0.000000,
232682346,48.811951,14.288139,2,-0.203247,-0.012939,0.064758,0.976929,-3.020405,-3.178872,51.353859,-1.145501,10.316110,40.678631,47.632823,80.570715,41.155924,0.000000,0.000000,
232691842,49.310058,14.292683,2,-0.178528,-0.013794,0.064880,0.981689,-2.783655,-2.272081,50.166574,-0.697582,9.228133,39.630153,48.567952,81.174022,40.038982,0.000000,0.000000,
232701713,50.203918,14.297227,2,-0.153259,-0.014404,0.064697,0.985962,-2.816090,-2.760820,47.872002,-0.450500,9.357534,37.305558,49.534934,81.762821,38.037977,0.000000,0.000000,
232712463,51.680939,14.292683,2,-0.127563,-0.014587,0.064026,0.989624,-2.955081,-2.426435,45.610799,0.192389,8.681105,35.134633,50.631088,82.429954,35.912582,0.000000,0.000000,
232722085,51.981018,14.297227,2,-0.101562,-0.014465,0.063049,0.992737,-2.918278,-1.856548,42.316403,0.735740,7.565924,31.969645,51.561022,82.919525,33.026152,0.000000,0.000000,
232731740,52.659881,14.283595,2,-0.075195,-0.014160,0.061768,0.995178,-2.943452,-2.433299,37.245532,1.159521,7.328258,26.899761,52.472795,83.327093,28.541323,0.000000,0.000000,
232742769,52.075714,14.292683,2,-0.048645,-0.013611,0.060242,0.996887,-2.737475,-1.985957,33.724392,1.429765,6.238068,23.479671,53.353247,83.534528,24.835936,0.000000,0.000000,
232752189,53.355316,14.288139,2,-0.021912,-0.012939,0.058411,0.997986,-2.838257,-1.426910,30.229185,1.924766,5.043870,20.112640,54.141066,83.722701,21.378244,0.000000,0.000000,
232762140,53.750152,14.288139,2,0.004822,-0.012268,0.056396,0.998291,-2.868870,-1.493060,27.622838,2.227889,4.570186,17.537849,54.935748,83.844781,18.566880,0.000000,0.000000,
232772883,53.663727,14.301770,2,0.031616,-0.011719,0.054199,0.997986,-2.810747,-1.356576,24.569852,2.404076,3.845426,14.548496,55.709584,83.830824,15.625218,0.000000,0.000000,
232782486,54.050812,14.292683,2,0.058228,-0.011230,0.051941,0.996887,-2.870494,-0.963661,22.285645,2.607594,2.955448,12.338016,56.348600,83.723788,13.218819,0.000000,0.000000,
232792224,54.832794,14.283595,2,0.084656,-0.010925,0.049683,0.995117,-2.791755,-1.226127,17.045060,2.737111,2.450287,7.121597,57.012094,83.588654,8.755342,0.000000,0.000000,
232803237,54.936279,14.288139,2,0.110962,-0.010864,0.047363,0.992615,-2.405960,-0.763733,12.241381,2.382233,1.385199,2.385391,57.724333,83.338131,4.092214,0.000000,0.000000,
232812631,54.841064,14.292683,2,0.137146,-0.011108,0.045166,0.989441,-2.413922,-0.395745,9.500124,2.343981,0.596637,-0.293808,58.217660,82.942762,0.881422,0.000000,0.000000,
232822502,56.121521,14.288139,2,0.163086,-0.011719,0.043030,0.985596,-2.135038,-0.550264,7.213596,2.135369,0.469409,-2.578917,58.826035,82.635142,-1.651723,0.000000,0.000000,
232833574,56.318725,14.288139,2,0.188965,-0.012817,0.040955,0.981079,-1.934821,-0.378445,3.857796,1.907243,-0.039940,-5.912125,59.488853,82.234041,-4.770554,0.000000,0.000000,
232842906,57.504669,14.288139,2,0.214600,-0.014282,0.039001,0.975830,-1.831470,-0.181114,2.906738,1.709913,-0.370677,-6.837326,60.056704,81.900071,-6.283536,0.000000,0.000000,
232852628,57.504669,14.288139,2,0.240112,-0.016113,0.036987,0.969910,-1.412160,-0.511157,0.996732,1.470807,-0.132778,-8.771420,60.596653,81.471067,-8.104794,0.000000,0.000000,
232863700,59.085754,14.288139,2,0.265381,-0.018127,0.035034,0.963318,-0.907168,-0.427675,-0.113277,0.999993,-0.113596,-9.888963,61.346459,81.159388,-9.410897,0.000000,0.000000,
232873185,60.074188,14.288139,2,0.290527,-0.020325,0.033447,0.956055,-0.787837,-0.267153,-0.779098,0.818606,-0.275777,-10.544605,61.988031,80.886480,-10.240829,0.000000,0.000000,
232882909,61.063232,14.288139,2,0.315491,-0.023010,0.032410,0.948059,-0.481589,-0.446396,-1.595746,0.696334,-0.056951,-11.381243,62.681290,80.651178,-11.075670,0.000000,0.000000,
232893669,62.447021,14.288139,2,0.340332,-0.025940,0.031738,0.939392,-0.256739,-0.608781,-2.763786,0.660888,0.088287,-12.564904,63.524826,80.484929,-12.165865,0.000000,0.000000,
232903149,63.538849,14.292683,2,0.364868,-0.029053,0.031250,0.930054,0.079576,-0.198900,-3.082077,0.174586,-0.049083,-12.889667,64.288625,80.364439,-12.695725,0.000000,0.000000,
232913856,64.321533,14.283595,2,0.389221,-0.032166,0.030884,0.920044,0.741588,-0.596877,-3.700999,0.046260,0.636451,-13.565433,65.151582,80.223843,-13.332395,0.000000,0.000000,
232923314,65.413025,14.288139,2,0.413330,-0.035278,0.030701,0.909363,0.910616,-0.069036,-4.237087,-0.376765,0.360919,-14.104075,65.935907,80.125606,-13.897304,0.000000,0.000000,
232933049,66.204681,14.288139,2,0.437134,-0.038330,0.030457,0.898071,1.082154,-0.132790,-4.522596,-0.372668,0.521096,-14.403340,66.742157,80.021515,-14.267748,0.000000,0.000000,
232944086,67.098968,14.292683,2,0.460693,-0.041321,0.029968,0.886108,1.321011,-0.689508,-5.507723,0.058743,0.957682,-15.422727,67.660159,79.899513,-15.113251,0.000000,0.000000,
232953598,67.597961,14.297227,2,0.484009,-0.044189,0.029297,0.873474,1.415337,0.212215,-5.374682,-0.663729,0.570185,-15.296661,68.413224,79.745537,-15.247517,0.000000,0.000000,
232963429,68.578918,14.288139,2,0.507263,-0.046814,0.028442,0.860046,1.009050,-0.141698,-5.447440,-0.082493,0.417564,-15.323923,69.213065,79.617177,-15.303450,0.000000,0.000000,
232974192,69.369751,14.288139,2,0.530273,-0.049133,0.027283,0.845947,1.101075,-0.129695,-6.133207,-0.016228,0.434816,-16.018002,70.084748,79.465987,-15.826539,0.000000,0.000000,
232983649,69.472900,14.292683,2,0.553162,-0.051208,0.026001,0.831055,1.044656,0.566378,-5.896190,-0.585529,0.144522,-15.787771,70.774186,79.233995,-15.798159,0.000000,0.000000,
232993424,69.972504,14.297227,2,0.575989,-0.052856,0.024536,0.815369,1.101974,0.542317,-6.264620,-0.507181,0.217564,-16.165747,71.467605,78.968311,-16.067252,0.000000,0.000000,
233004420,70.557159,14.288139,2,0.598633,-0.054016,0.023010,0.798889,0.792809,-0.239307,-6.445240,0.392923,0.165843,-16.281222,72.243659,78.667391,-16.223889,0.000000,0.000000,
233013914,71.546173,14.288139,2,0.621155,-0.054749,0.021423,0.781494,0.815066,0.185032,-6.570354,0.033907,0.083144,-16.420302,72.919809,78.417114,-16.367673,0.000000,0.000000,
233023731,72.243927,14.292683,2,0.643311,-0.055115,0.019897,0.763367,0.620747,0.296978,-6.431378,-0.011149,-0.097942,-16.263795,73.621124,78.166607,-16.291629,0.000000,0.000000,
233034530,72.441955,14.292683,2,0.665161,-0.055054,0.018372,0.744446,0.402134,-0.009250,-6.532521,0.351374,-0.260893,-16.336117,74.346050,77.832073,-16.324197,0.000000,0.000000,
233043992,72.828705,14.283595,2,0.686584,-0.054626,0.016907,0.724792,0.136077,0.030543,-6.726567,0.344404,-0.539613,-16.501505,74.929576,77.470892,-16.453996,0.000000,0.000000,
233053866,73.723572,14.288139,2,0.707458,-0.053955,0.015381,0.704529,0.274520,0.250874,-6.375517,0.103102,-0.359787,-16.176496,75.572924,77.149246,-16.250852,0.000000,0.000000,
233064911,74.713409,14.288139,2,0.727661,-0.053040,0.013916,0.683716,-0.070738,-0.580564,-6.614146,0.919733,-0.740356,-16.333050,76.337833,76.853667,-16.311025,0.000000,0.000000,
233074418,75.014679,14.292683,2,0.747131,-0.052124,0.012573,0.662537,-0.010079,-0.373827,-6.684105,0.705604,-0.687107,-16.428127,76.934956,76.518349,-16.396750,0.000000,0.000000,
233084062,76.004639,14.292683,2,0.765808,-0.051086,0.011292,0.640930,-0.102087,-0.617368,-6.366110,0.900194,-0.799700,-16.086649,77.578935,76.238067,-16.169740,0.000000,0.000000,
233095172,76.306457,14.297227,2,0.783630,-0.050049,0.010071,0.619080,-0.242931,-1.145703,-6.818957,1.377028,-1.120633,-16.489431,78.297286,75.884501,-16.403770,0.000000,0.000000,
233104592,77.786163,14.292683,2,0.800720,-0.049194,0.008972,0.596985,0.022393,-0.847144,-6.463397,1.108679,-0.804305,-16.173114,78.960119,75.663030,-16.234918,0.000000,0.000000,
233114307,77.975494,14.283595,2,0.816895,-0.048401,0.007935,0.574707,-0.229533,-0.685586,-6.360614,0.842126,-1.009539,-16.062926,79.595768,75.374604,-16.109011,0.000000,0.000000,
233125278,79.172729,14.292683,2,0.832275,-0.047791,0.006897,0.552246,-0.098682,-1.185757,-6.747375,1.331957,-1.147282,-16.428961,80.379280,75.137784,-16.343231,0.000000,0.000000,
233134765,79.861145,14.288139,2,0.846924,-0.047546,0.005737,0.529541,-0.090511,-1.015336,-6.538637,1.133364,-1.096903,-16.232032,81.039403,74.913764,-16.261828,0.000000,0.000000,
233145581,80.757110,14.292683,2,0.860779,-0.047546,0.004578,0.506775,-0.018546,-0.668525,-6.459576,0.836285,-0.908918,-16.181092,81.820401,74.700793,-16.202725,0.000000,0.000000,
233155014,80.757110,14.292683,2,0.873840,-0.047852,0.003296,0.483887,-0.050770,-1.055295,-6.540979,1.138057,-1.172133,-16.227741,82.417630,74.403795,-16.221038,0.000000,0.000000,
233164590,81.059082,14.297227,2,0.886169,-0.048340,0.002014,0.460815,0.294039,-0.623346,-6.632318,0.950680,-0.698760,-16.368825,82.993255,74.064427,-16.329226,0.000000,0.000000,
233175724,81.851410,14.297227,2,0.897827,-0.049011,0.000671,0.437683,0.251303,-0.173254,-6.230602,0.554702,-0.466179,-15.993026,83.702413,73.733457,-16.083111,0.000000,0.000000,
233184932,82.540527,14.292683,2,0.908752,-0.049866,-0.000793,0.414307,0.215689,-0.563447,-6.647646,0.853074,-0.806400,-16.370041,84.264110,73.425475,-16.293158,0.000000,0.000000,
233194752,83.625122,14.288139,2,0.919067,-0.050842,-0.002380,0.390869,0.273760,-0.445109,-6.649256,0.801500,-0.726737,-16.382214,84.920364,73.178962,-16.358352,0.000000,0.000000,
233205548,83.332428,14.292683,2,0.928650,-0.051819,-0.004150,0.367249,0.002222,0.046990,-6.196485,0.250005,-0.549478,-15.970145,85.550341,72.794034,-16.074165,0.000000,0.000000,
233215105,84.228729,14.297227,2,0.937622,-0.052856,-0.005981,0.343628,0.318181,-0.108368,-6.608461,0.623615,-0.510483,-16.372976,86.112778,72.459355,-16.292910,0.000000,0.000000,
233224803,84.521454,14.292683,2,0.945923,-0.053772,-0.007935,0.319885,0.027198,0.045656,-6.306344,0.309530,-0.562088,-16.071695,86.655391,72.090134,-16.130970,0.000000,0.000000,
233235820,85.115753,14.292683,2,0.953552,-0.054688,-0.009888,0.296021,-0.039810,0.463101,-6.209927,0.027705,-0.263866,-16.021493,87.294328,71.707819,-16.050828,0.000000,0.000000,
233245177,85.795227,14.279051,2,0.960571,-0.055420,-0.011902,0.272095,-0.215907,0.017448,-6.354069,0.146460,-0.740631,-16.115795,87.814288,71.354676,-16.098388,0.000000,0.000000,
233255052,86.201141,14.288139,2,0.967041,-0.056030,-0.013855,0.248108,-0.135448,0.046053,-6.397189,0.199850,-0.679124,-16.165067,88.356584,70.978912,-16.147201,0.000000,0.000000,
233265814,86.701568,14.292683,3,0.972839,-0.056458,-0.015808,0.223938,-0.378363,0.447046,-6.114629,-0.185859,-0.397976,-15.923616,88.953680,70.586058,-15.983526,0.000000,0.000000,
233275466,86.597229,14.288139,3,0.978088,-0.056641,-0.017639,0.199646,-0.163339,-0.169450,-6.190655,0.277044,-0.863067,-15.927396,89.397977,70.114775,-15.942437,0.020000,0.020000,
233285275,87.588806,14.288139,3,0.982727,-0.056702,-0.019287,0.175171,-0.278739,0.117638,-6.290734,0.071035,-0.650955,-16.063732,89.903731,69.714434,-16.031232,0.040000,0.040000,
233296377,88.777283,14.288139,3,0.986755,-0.056580,-0.020813,0.150574,-0.474757,-0.017177,-6.075200,-0.087655,-0.802634,-15.840845,90.563766,69.387688,-15.891859,0.060000,0.060000,
233305713,89.079498,14.292683,3,0.990173,-0.056274,-0.022034,0.125977,-0.310053,-0.041968,-6.429106,0.092242,-0.803553,-16.186915,91.061949,69.035660,-16.107855,0.080000,0.080000,
233315579,89.674560,14.292683,3,0.993042,-0.055847,-0.023132,0.101318,-0.251846,0.179364,-6.044519,0.073867,-0.519995,-15.830754,91.603291,68.693225,-15.905003,0.100000,0.100000,
233326610,90.467041,14.292683,3,0.995239,-0.055359,-0.024109,0.076843,-0.328724,0.179625,-6.080281,-0.000122,-0.527369,-15.869861,92.246117,68.365898,-15.879278,0.120000,0.120000,
233335963,90.769287,14.297227,3,0.996826,-0.054810,-0.024963,0.052307,-0.164507,-0.366902,-6.133369,0.216511,-1.040809,-15.855369,92.736683,68.017815,-15.861776,0.140000,0.140000,
233346804,92.346618,14.288139,3,0.997803,-0.054077,-0.025635,0.027832,0.029714,0.039386,-5.951009,0.351827,-0.594363,-15.711189,93.434011,67.795075,-15.751539,0.160000,0.160000,
233356054,92.354950,14.297227,3,0.998230,-0.053284,-0.026184,0.003418,-0.049169,0.049974,-5.947066,0.272437,-0.586421,-15.711204,93.952199,67.503797,-15.722012,0.180000,0.180000,
233365761,93.640076,14.292683,3,0.998047,-0.052429,-0.026611,-0.020874,0.037602,-0.763073,-5.979370,0.309805,-1.396609,-15.654110,94.575464,67.309983,-15.672304,0.200000,0.200000,
233376820,94.527893,14.288139,3,0.997314,-0.051453,-0.026978,-0.044922,0.215964,-0.080668,-5.921792,0.501351,-0.723633,-15.666875,95.314118,67.130362,-15.668329,0.222000,0.222000,
233386297,94.839111,14.301770,3,0.995972,-0.050537,-0.027222,-0.068787,0.133207,-0.286706,-5.801374,0.375580,-0.907745,-15.531188,95.901978,66.919074,-15.567935,0.240000,0.240000,
233396017,96.321991,14.297227,3,0.994080,-0.049622,-0.027405,-0.092468,0.446865,-0.896287,-6.089511,0.549851,-1.597127,-15.740086,96.593754,66.822440,-15.693958,0.260000,0.260000,
233406770,96.416565,14.292683,3,0.991638,-0.048828,-0.027588,-0.116028,0.572722,-0.422416,-6.130274,0.729675,-1.180091,-15.816268,97.293619,66.628699,-15.783495,0.282000,0.282000,
233416353,97.503143,14.288139,3,0.988708,-0.048035,-0.027832,-0.139343,0.278624,-0.161050,-5.984915,0.471029,-0.849783,-15.714863,97.952408,66.506348,-15.733253,0.302000,0.302000,
233426132,97.304626,14.288139,3,0.985168,-0.047424,-0.028076,-0.162415,0.630089,-0.673853,-6.461535,0.637182,-1.504868,-16.119677,98.537116,66.261870,-16.016135,0.322000,0.322000,
233437215,98.098205,14.288139,3,0.981140,-0.046936,-0.028381,-0.185242,0.620804,-0.652037,-6.273224,0.580942,-1.483149,-15.934647,99.226517,66.026544,-15.956482,0.342000,0.342000,
233446667,99.194305,14.292683,3,0.976562,-0.046570,-0.028809,-0.208130,0.653924,0.129954,-6.276693,0.880496,-0.796054,-15.998212,99.846652,65.870963,-15.987030,0.362000,0.362000,
233456418,98.797729,14.292683,3,0.971436,-0.046387,-0.029358,-0.230896,0.698854,-0.241537,-6.736963,0.761831,-1.229019,-16.421381,100.383086,65.570039,-16.304997,0.382000,0.382000,
233467386,99.297729,14.297227,3,0.965759,-0.046265,-0.030029,-0.253479,0.414175,-0.239268,-6.742852,0.479298,-1.123995,-16.448818,100.992442,65.244413,-16.410282,0.402000,0.402000,
233476720,100.186066,14.292683,3,0.959595,-0.046265,-0.030945,-0.275879,0.708933,0.373309,-6.642270,1.023683,-0.765213,-16.368020,101.519854,64.982739,-16.379344,0.422000,0.422000,
233486498,100.980377,14.292683,3,0.952820,-0.046204,-0.031921,-0.298218,0.434339,-0.071489,-6.781615,0.542541,-1.039096,-16.496330,102.100437,64.749135,-16.464984,0.442000,0.442000,
233497586,101.074463,14.288139,3,0.945557,-0.046143,-0.033142,-0.320496,0.366887,0.223259,-7.061706,0.659545,-0.819337,-16.799421,102.714476,64.425811,-16.709809,0.464000,0.464000,
233507070,102.567077,14.292683,3,0.937683,-0.046021,-0.034485,-0.342773,0.517456,0.203667,-6.921093,0.755240,-0.942525,-16.642539,103.309958,64.248083,-16.660564,0.482000,0.482000,
233517788,103.257568,14.288139,3,0.929260,-0.045776,-0.036011,-0.364746,0.543269,-0.409201,-7.758181,0.376910,-1.536396,-17.432733,103.992287,64.054395,-17.225831,0.504000,0.504000,
233527220,104.051575,14.288139,3,0.920349,-0.045410,-0.037659,-0.386597,0.269541,0.249348,-7.491233,0.622343,-0.866258,-17.222184,104.601629,63.899966,-17.223162,0.522000,0.522000,
233536812,104.259582,14.297227,3,0.910828,-0.044922,-0.039368,-0.408447,0.151633,-0.115450,-7.429987,0.270973,-1.041990,-17.154126,105.179514,63.689527,-17.172624,0.542000,0.542000,
233547666,104.751007,14.292683,3,0.900757,-0.044312,-0.041199,-0.430115,0.160900,-0.246002,-7.599661,0.180432,-1.158122,-17.316443,105.826837,63.444376,-17.277907,0.562000,0.562000,
233556998,104.949676,14.292683,3,0.890198,-0.043579,-0.042969,-0.451416,0.169108,0.141891,-7.428199,0.493211,-0.921019,-17.161230,106.330251,63.166113,-17.192494,0.582000,0.582000,
233566861,105.535797,14.283595,3,0.879272,-0.042725,-0.044861,-0.472290,-0.227212,-0.589865,-7.643573,-0.318485,-1.043197,-17.396797,106.872886,62.888315,-17.342054,0.602000,0.602000,
233577968,103.957458,14.292683,3,0.868042,-0.041748,-0.046631,-0.492554,0.218334,-0.616080,-7.912391,-0.108159,-1.448003,-17.603153,107.278106,62.303605,-17.533192,0.624000,0.624000,
233587436,104.855560,14.297227,3,0.856323,-0.040588,-0.048401,-0.512573,-0.259824,-0.432851,-7.808263,-0.185794,-0.909351,-17.567796,107.624267,61.810305,-17.558524,0.644000,0.644000,
233597140,105.346496,14.292683,3,0.844177,-0.039368,-0.049988,-0.532227,0.207650,-0.099683,-7.778195,0.323823,-1.170727,-17.485903,107.995133,61.335132,-17.505362,0.664000,0.664000,
233608286,106.244690,14.297227,3,0.831787,-0.037964,-0.051392,-0.551392,-0.473281,-0.607535,-7.631792,-0.409803,-0.727402,-17.424774,108.502201,60.906884,-17.446368,0.684000,0.684000,
233617681,106.443390,14.297227,3,0.819092,-0.036499,-0.052673,-0.570068,0.340616,0.010492,-8.514323,0.511174,-1.335927,-18.200869,108.867069,60.457363,-17.998701,0.704000,0.704000,
233627383,107.143493,14.301770,3,0.806152,-0.034973,-0.053711,-0.588196,-0.096475,-0.435488,-7.934738,-0.076254,-0.990572,-17.685055,109.280162,60.054504,-17.769097,0.724000,0.724000,
233638322,107.039978,14.297227,3,0.793030,-0.033447,-0.054382,-0.605835,-0.149251,-0.850009,-8.805475,-0.449718,-1.129390,-18.563038,109.711403,59.552108,-18.350302,0.744000,0.744000,
233647806,108.032471,14.297227,3,0.779602,-0.031982,-0.054871,-0.623047,0.122502,-0.187106,-8.644004,0.242525,-1.190401,-18.360285,110.107004,59.151431,-18.357610,0.764000,0.764000,
233657398,108.618255,14.288139,3,0.765991,-0.030518,-0.055237,-0.639709,-0.155399,-0.518266,-8.327746,-0.152825,-0.920157,-18.090750,110.524484,58.778259,-18.162255,0.784000,0.784000,
233668495,108.533447,14.301770,3,0.752136,-0.028992,-0.055481,-0.656006,0.858957,-0.802288,-9.140389,-0.258918,-2.018752,-18.784376,110.976026,58.304190,-18.617680,0.804000,0.804000,
233677908,110.008423,14.288139,3,0.737854,-0.027588,-0.055542,-0.672119,0.343303,-0.419343,-8.904009,0.016962,-1.413508,-18.613342,111.426993,57.998402,-18.614505,0.796875,0.796875,
233688788,110.614075,14.297227,3,0.723450,-0.026184,-0.055542,-0.687683,0.595134,0.182383,-8.929834,0.614195,-1.601724,-18.589753,111.975386,57.687175,-18.596385,0.781250,0.781250,
233697998,112.099212,14.292683,3,0.708801,-0.024963,-0.055420,-0.702759,0.983580,-0.407228,-9.142397,0.003330,-2.021306,-18.782052,112.518299,57.530856,-18.732303,0.781250,0.781250,
233707826,112.298035,14.292683,3,0.693848,-0.023682,-0.055298,-0.717590,0.559949,0.082943,-8.998272,0.452857,-1.573907,-18.667379,113.060757,57.317890,-18.684775,0.781250,0.781250,
233718587,112.884552,14.283595,3,0.678223,-0.022400,-0.055115,-0.732422,1.226801,-0.725036,-9.038972,-0.436770,-2.171022,-18.678269,113.658817,57.093339,-18.680012,0.781250,0.781250,
233728151,112.893921,14.292683,3,0.661804,-0.021118,-0.054932,-0.747375,0.301920,-0.363420,-9.276696,-0.015458,-1.277768,-18.998301,114.127308,56.808575,-18.913016,0.763250,0.763250,
233737908,114.473602,14.283595,3,0.644958,-0.019897,-0.054810,-0.761963,0.674666,0.183622,-8.746051,0.428388,-1.648320,-18.413978,114.715403,56.675304,-18.547695,0.765625,0.765625,
233749024,115.570953,14.288139,3,0.627869,-0.018738,-0.054688,-0.776184,0.647311,0.294220,-8.605329,0.491376,-1.631808,-18.271070,115.430044,56.586410,-18.345192,0.781250,0.781250,
233758314,115.079529,14.292683,3,0.610291,-0.017639,-0.054565,-0.790100,0.966636,-0.615259,-9.163458,-0.483073,-1.771573,-18.855284,115.919751,56.363710,-18.718605,0.781250,0.781250,
233768208,115.769806,14.288139,3,0.592224,-0.016541,-0.054565,-0.803772,0.560253,-0.110664,-8.565745,0.059555,-1.425483,-18.269303,116.461517,56.162840,-18.389693,0.781250,0.781250,
233778993,115.873932,14.292683,3,0.573792,-0.015503,-0.054626,-0.817017,0.916213,-0.122385,-9.422595,-0.075785,-1.828090,-19.092848,117.007207,55.878493,-18.904438,0.765625,0.765625,
233788454,116.857910,14.283595,3,0.554932,-0.014526,-0.054749,-0.829956,0.826135,-0.779455,-8.871918,-0.709190,-1.417233,-18.605657,117.520085,55.682426,-18.685715,0.765625,0.765625,
233798174,117.266113,14.292683,3,0.535645,-0.013489,-0.054932,-0.842529,0.796867,-0.114851,-8.784678,-0.124774,-1.621074,-18.473918,118.035025,55.468841,-18.530669,0.750000,0.750000,
233809244,117.956543,14.288139,3,0.515869,-0.012451,-0.055176,-0.854797,0.113220,0.111503,-8.502234,0.353180,-1.072340,-18.231377,118.640092,55.256429,-18.311572,0.750000,0.750000,
233818653,117.558746,14.288139,3,0.495667,-0.011353,-0.055481,-0.866638,0.642304,-0.242661,-8.817977,-0.222805,-1.379344,-18.536573,119.050744,54.936021,-18.476285,0.734375,0.734375,
233829667,118.647034,14.283595,3,0.475220,-0.010193,-0.055908,-0.878052,0.603564,0.663366,-8.372279,0.521296,-1.775099,-18.018828,119.614237,54.683299,-18.141404,0.718750,0.718750,
233838967,119.253204,14.292683,3,0.454346,-0.009033,-0.056335,-0.888977,0.429876,-0.195922,-8.293640,-0.123677,-1.140288,-18.031808,120.085795,54.466801,-18.061174,0.718750,0.718750,
233848715,119.650543,14.292683,3,0.433167,-0.007874,-0.056763,-0.899475,0.374047,-0.463036,-8.313415,-0.301077,-0.913976,-18.083165,120.572278,54.232125,-18.077272,0.703125,0.703125,
233859768,119.054260,14.292683,3,0.411804,-0.006592,-0.057251,-0.909485,1.061882,0.164005,-8.419429,-0.283400,-1.836840,-18.088290,121.018391,53.829103,-18.085338,0.681125,0.681125,
233869183,121.136993,14.288139,3,0.390198,-0.005249,-0.057678,-0.918945,0.234438,-0.540544,-8.258045,-0.256462,-0.715342,-18.049435,121.536291,53.675206,-18.059055,0.671875,0.671875,
233878755,121.440155,14.292683,3,0.368225,-0.003845,-0.058167,-0.927917,0.827701,0.044861,-8.636405,-0.271015,-1.561815,-18.337693,122.039593,53.486764,-18.263032,0.671875,0.671875,
233889706,121.743316,14.297227,3,0.346252,-0.002319,-0.058594,-0.936279,0.468674,-0.063452,-7.899144,-0.111759,-1.134934,-17.628078,122.594598,53.253917,-17.798213,0.656250,0.656250,
233899137,122.329834,14.288139,3,0.323853,-0.000732,-0.059021,-0.944275,0.373123,-0.181871,-7.935215,-0.115575,-0.984774,-17.682451,123.069512,53.051499,-17.713469,0.656250,0.656250,
233909046,121.942291,14.297227,3,0.301208,0.000854,-0.059509,-0.951721,0.175612,-0.706059,-8.029743,-0.249073,-0.440198,-17.845858,123.481436,52.723707,-17.810385,0.636250,0.636250,
233919811,123.229523,14.292683,3,0.278625,0.002563,-0.059937,-0.958557,-0.019269,0.064704,-7.380330,0.325910,-0.886269,-17.120504,124.022789,52.505536,-17.305357,0.614250,0.614250,
233929288,123.523376,14.288139,3,0.256226,0.004272,-0.060364,-0.964722,0.804295,-0.064438,-7.727833,-0.428308,-1.229480,-17.462002,124.469532,52.272714,-17.420029,0.596250,0.596250,
233938997,124.423157,14.292683,3,0.233948,0.006042,-0.060791,-0.970337,-0.064037,-0.817744,-7.525459,-0.012878,-0.120687,-17.371740,124.971587,52.097841,-17.384679,0.593750,0.593750,
233950073,125.322998,14.297227,3,0.211365,0.007874,-0.061096,-0.975464,0.330943,-0.200149,-6.856912,-0.103115,-0.752719,-16.630159,125.582844,51.960291,-16.832332,0.609375,0.609375,
233959610,125.124481,14.297227,3,0.188721,0.009766,-0.061462,-0.980042,0.930878,-0.387278,-7.243516,-0.706753,-0.845245,-17.036699,126.031640,51.735904,-16.981939,0.593750,0.593750,
233970451,125.721130,14.297227,3,0.166199,0.011658,-0.061646,-0.984070,0.215283,-0.532155,-7.457105,-0.046729,-0.452913,-17.261834,126.560337,51.507181,-17.186837,0.578125,0.578125,
233979900,126.412109,14.292683,3,0.143677,0.013550,-0.061768,-0.987610,0.695448,-0.013421,-6.704832,-0.362846,-0.978682,-16.457007,127.031449,51.331858,-16.652564,0.578125,0.578125,
233989622,126.317261,14.297227,3,0.120972,0.015442,-0.061707,-0.990601,0.173842,-0.675475,-6.982530,-0.006893,-0.222687,-16.812510,127.458143,51.072499,-16.769653,0.562500,0.562500,
234000500,127.103699,14.288139,3,0.098328,0.017273,-0.061584,-0.993103,0.654229,-0.530891,-6.984650,-0.411773,-0.443653,-16.808528,127.977178,50.842225,-16.798112,0.546875,0.546875,
234009750,127.710327,14.297227,3,0.075867,0.018982,-0.061340,-0.995056,0.268418,0.014967,-6.209754,0.039047,-0.799146,-15.964301,128.420063,50.658835,-16.187720,0.546875,0.546875,
234019362,128.903961,14.297227,3,0.053467,0.020569,-0.060974,-0.996521,0.872632,-0.358843,-6.450345,-0.589781,-0.512313,-16.271988,128.954672,50.567186,-16.249408,0.562500,0.562500,
234030446,129.092651,14.288139,3,0.031067,0.022095,-0.060486,-0.997437,0.442094,-0.296394,-6.497905,-0.142034,-0.515783,-16.298342,129.527978,50.404948,-16.285231,0.562500,0.562500,
234039926,129.689514,14.288139,3,0.008728,0.023499,-0.059937,-0.997864,0.585302,-0.049541,-6.452958,-0.266345,-0.738196,-16.232287,130.021282,50.272848,-16.246473,0.562500,0.562500,
234049761,130.193115,14.292683,3,-0.013611,0.024841,-0.059326,-0.997864,0.492930,-0.670733,-6.267199,-0.169849,-0.072194,-16.120102,130.532146,50.137319,-16.153963,0.578125,0.578125,
234060593,131.282196,14.288139,3,-0.035767,0.026123,-0.058655,-0.997314,0.299027,-0.195202,-6.401032,0.024456,-0.555341,-16.187320,131.149449,50.062260,-16.178382,0.593750,0.593750,
234070036,131.396393,14.301770,3,-0.057678,0.027222,-0.057922,-0.996277,0.653102,0.169677,-6.266370,-0.362817,-0.838424,-16.035592,131.646230,49.944154,-16.073853,0.609375,0.609375,
234079963,132.087768,14.297227,3,-0.079407,0.028198,-0.057251,-0.994812,0.203713,-0.388587,-6.023109,0.153339,-0.304024,-15.828839,132.185468,49.846131,-15.894490,0.625000,0.625000,
234090789,132.684814,14.297227,3,-0.101074,0.029053,-0.056458,-0.992859,0.188491,0.035672,-6.185905,0.101429,-0.729680,-15.943675,132.774216,49.740339,-15.930496,0.640625,0.640625,
234100290,133.177582,14.292683,3,-0.122681,0.029846,-0.055664,-0.990417,0.393104,0.046336,-5.948852,-0.120595,-0.659029,-15.722287,133.286539,49.645405,-15.778077,0.656250,0.656250,
234111241,133.481628,14.297227,3,-0.144165,0.030579,-0.054871,-0.987549,0.317987,-0.442346,-6.345234,0.111004,-0.239925,-16.159699,133.848792,49.494711,-16.057444,0.656250,0.656250,
234120724,133.869629,14.288139,3,-0.165161,0.031250,-0.054138,-0.984253,0.243677,-0.398939,-6.035033,0.171011,-0.257649,-15.841263,134.319537,49.347371,-15.899189,0.656250,0.656250,
234130330,133.973907,14.292683,3,-0.185974,0.031921,-0.053406,-0.980591,-0.115992,-0.060719,-6.172091,0.401685,-0.709156,-15.925527,134.758204,49.147952,-15.918470,0.656250,0.656250,
234141427,134.477203,14.297227,3,-0.206482,0.032593,-0.052612,-0.976501,0.085485,-0.328241,-6.026618,0.312423,-0.375582,-15.821070,135.274452,48.934760,-15.847168,0.640625,0.640625,
234150844,134.865234,14.288139,3,-0.226624,0.033203,-0.051941,-0.972046,-0.297515,-0.099874,-6.272300,0.570045,-0.772501,-16.010985,135.693503,48.728620,-15.967091,0.625000,0.625000,
234160627,134.487091,14.306314,3,-0.246582,0.033875,-0.051208,-0.967163,0.239776,-0.002662,-6.020906,0.030178,-0.587562,-15.800807,136.048599,48.412116,-15.845363,0.605000,0.605000,
234171458,135.566742,14.292683,3,-0.266296,0.034607,-0.050537,-0.961914,0.107321,-0.916293,-6.379354,0.638245,0.092806,-16.216462,136.523679,48.172077,-16.117027,0.585000,0.585000,
234180952,135.964722,14.292683,3,-0.285889,0.035339,-0.049805,-0.956299,-0.069056,-0.102264,-6.322933,0.359532,-0.688317,-16.079328,136.924249,47.944024,-16.089430,0.565000,0.565000,
234190551,136.363251,14.292683,3,-0.305420,0.036194,-0.049072,-0.950256,0.030296,0.201594,-5.583978,0.076670,-0.800564,-15.332656,137.327605,47.721650,-15.535433,0.545000,0.545000,
234201673,136.960022,14.292683,3,-0.324707,0.037170,-0.048401,-0.943848,-0.305157,-0.157503,-6.104634,0.572656,-0.778218,-15.840554,137.820535,47.496513,-15.758797,0.525000,0.525000,
234210989,137.568817,14.301770,3,-0.343628,0.038208,-0.047668,-0.937134,0.035073,-0.248473,-6.013474,0.364793,-0.492413,-15.790238,138.237086,47.315422,-15.781813,0.515625,0.515625,
234220886,138.050873,14.288139,3,-0.362122,0.039246,-0.046997,-0.930115,0.420938,-0.000885,-5.703799,-0.092513,-0.383911,-15.509216,138.685968,47.136972,-15.582258,0.500000,0.500000,
234231672,138.847046,14.288139,3,-0.380493,0.040344,-0.046387,-0.922729,0.583965,0.113090,-6.046326,-0.257608,-0.385300,-15.861495,139.209600,46.987508,-15.786673,0.515625,0.515625,
234241169,138.753143,14.292683,3,-0.398682,0.041443,-0.045715,-0.915039,-0.574563,-0.466594,-5.561424,0.947280,-0.754651,-15.282407,139.609410,46.780997,-15.417525,0.500000,0.500000,
234250881,140.241302,14.288139,3,-0.416626,0.042603,-0.045105,-0.906921,-0.231568,0.064609,-5.631906,0.325775,-0.884186,-15.363529,140.126293,46.716444,-15.377997,0.515625,0.515625,
234261922,141.038147,14.288139,3,-0.434387,0.043823,-0.044434,-0.898560,0.125222,-0.241235,-5.237610,0.315001,-0.377819,-15.027467,140.732570,46.672190,-15.121391,0.537625,0.537625,
234271307,141.038147,14.288139,3,-0.451843,0.045105,-0.043762,-0.889893,0.147623,-0.839298,-5.600352,0.818888,-0.058270,-15.401743,141.200538,46.568774,-15.326623,0.557625,0.557625,
234282276,141.740631,14.292683,3,-0.469116,0.046448,-0.043152,-0.880859,0.060081,0.126371,-5.171422,0.073646,-0.650774,-14.930570,141.764631,46.477220,-15.036692,0.577625,0.577625,
234291513,142.632080,14.288139,3,-0.485962,0.047791,-0.042480,-0.871643,0.093871,-0.618313,-5.338708,0.701670,-0.241345,-15.123804,142.280295,46.454741,-15.100462,0.597625,0.597625,
234301374,142.537598,14.292683,3,-0.502625,0.049133,-0.041809,-0.862061,0.322881,-0.494399,-5.625087,0.511512,-0.165238,-15.431644,142.763393,46.337071,-15.342904,0.617625,0.617625,
234312186,143.439056,14.297227,3,-0.518921,0.050537,-0.041016,-0.852356,0.179026,-0.009048,-4.763817,0.133634,-0.423336,-14.549460,143.331289,46.269929,-14.762062,0.637625,0.637625,
234321689,144.131225,14.292683,3,-0.534912,0.051941,-0.040161,-0.842346,0.264984,-0.324013,-5.472392,0.421328,-0.311010,-15.266927,143.850485,46.232541,-15.131649,0.657625,0.657625,
234331484,144.624573,14.288139,3,-0.550598,0.053345,-0.039307,-0.832153,0.569908,-0.413458,-5.260993,0.395711,0.021449,-15.098231,144.380131,46.188395,-15.107185,0.677625,0.677625,
234342616,144.530060,14.292683,3,-0.565979,0.054688,-0.038330,-0.821716,0.336963,-0.113516,-5.167589,0.228563,-0.298385,-14.963165,144.908410,46.041819,-15.001755,0.697625,0.697625,
234352045,145.222320,14.288139,3,-0.580933,0.056091,-0.037354,-0.811157,0.143621,-0.265060,-5.614022,0.479114,-0.490891,-15.379167,145.373331,45.939100,-15.278040,0.717625,0.717625,
234361754,145.631134,14.297227,3,-0.595764,0.057373,-0.036255,-0.800293,0.474068,-0.474585,-5.503851,0.589891,-0.111879,-15.312079,145.844457,45.825040,-15.302958,0.737625,0.737625,
234372832,145.925079,14.292683,3,-0.610413,0.058655,-0.035095,-0.789124,0.509668,0.051923,-5.312547,0.098094,-0.203617,-15.133218,146.359268,45.668118,-15.178700,0.759625,0.759625,
234382185,146.219025,14.288139,3,-0.624878,0.059875,-0.033875,-0.777710,0.149718,-0.242463,-5.337570,0.484528,-0.489282,-15.103521,146.771676,45.507928,-15.123665,0.750000,0.750000,
234391786,147.425232,14.297227,3,-0.639038,0.060974,-0.032654,-0.766052,0.566317,-0.060960,-5.652229,0.256870,-0.164258,-15.476013,147.273323,45.446993,-15.381601,0.770000,0.770000,
234402953,148.117676,14.292683,3,-0.653259,0.062073,-0.031433,-0.753906,0.501649,-0.247043,-5.502859,0.464328,-0.179549,-15.313669,147.864514,45.388723,-15.331871,0.792000,0.792000,
234412416,148.117676,14.292683,3,-0.667480,0.063049,-0.030212,-0.741333,0.111965,-0.385049,-5.751971,0.683217,-0.591655,-15.500894,148.318721,45.276172,-15.455604,0.812000,0.812000,
234423326,148.715637,14.292683,3,-0.681274,0.063904,-0.028992,-0.728638,0.433204,0.138978,-5.574579,0.142540,-0.302131,-15.389425,148.851593,45.161517,-15.407157,0.832000,0.832000,
234432594,149.114136,14.292683,3,-0.694763,0.064697,-0.027832,-0.715759,0.324448,0.329917,-5.389574,-0.046445,-0.394831,-15.191563,149.295847,45.056318,-15.249331,0.852000,0.852000,
234442219,148.820618,14.297227,3,-0.708069,0.065430,-0.026672,-0.702576,0.428368,-0.417711,-5.787438,0.736088,-0.331107,-15.559841,149.681187,44.842808,-15.476640,0.843750,0.843750,
234453047,150.016693,14.297227,3,-0.721069,0.066101,-0.025513,-0.689209,0.408412,-0.387827,-5.786162,0.720343,-0.369754,-15.554960,150.199450,44.719225,-15.533974,0.859375,0.859375,
234462496,150.111206,14.292683,3,-0.733887,0.066711,-0.024353,-0.675537,-0.052238,0.025163,-5.473143,0.274901,-0.769621,-15.210940,150.612490,44.563704,-15.297496,0.859375,0.859375,
234472178,149.911682,14.292683,3,-0.746460,0.067261,-0.023193,-0.661621,0.116166,-0.039984,-5.896772,0.377627,-0.665140,-15.647448,150.973064,44.318422,-15.553679,0.839375,0.839375,
234483210,151.212341,14.297227,3,-0.758911,0.067810,-0.021973,-0.647339,0.229085,-0.039848,-5.793628,0.399968,-0.551260,-15.557537,151.485010,44.178708,-15.556504,0.843750,0.843750,
234492728,152.493316,14.283595,3,-0.771118,0.068176,-0.020813,-0.632690,-0.135005,0.200491,-5.822843,0.094662,-0.859209,-15.562903,152.005880,44.166437,-15.561188,0.863750,0.863750,
234502514,151.611969,14.297227,3,-0.783142,0.068542,-0.019653,-0.617676,0.293416,-0.844320,-5.972888,1.214113,-0.697665,-15.675007,152.397893,43.960263,-15.644509,0.875000,0.875000,
234513306,152.598327,14.288139,3,-0.794922,0.068787,-0.018555,-0.602539,-0.528497,-0.241040,-5.739112,0.395593,-1.326602,-15.399590,152.891509,43.820795,-15.465216,0.890625,0.890625,
234522786,152.797912,14.288139,3,-0.806274,0.069031,-0.017517,-0.587219,0.823009,0.112537,-5.909819,0.468667,0.027770,-15.748478,153.296830,43.658816,-15.672578,0.875000,0.875000,
234532536,153.500641,14.292683,3,-0.817383,0.069153,-0.016541,-0.571655,-0.577521,-0.242747,-5.944134,0.339360,-1.405118,-15.598775,153.742169,43.534014,-15.618550,0.890625,0.890625,
234543677,154.004883,14.297227,3,-0.828186,0.069214,-0.015564,-0.555908,-0.218019,0.055908,-5.504271,0.147941,-0.913269,-15.229481,154.252579,43.399277,-15.333731,0.906250,0.906250,
234553165,153.700256,14.292683,3,-0.838745,0.069214,-0.014648,-0.539856,0.306134,-0.059918,-5.758077,0.472000,-0.511211,-15.522337,154.608250,43.177367,-15.471800,0.888250,0.888250,
234564030,155.001922,14.297227,3,-0.849060,0.069214,-0.013794,-0.523560,-0.053187,-0.759747,-5.728033,0.934095,-1.138749,-15.385187,155.115960,43.063008,-15.408395,0.906250,0.906250,
234573312,154.991455,14.288139,3,-0.859070,0.069153,-0.012878,-0.506958,0.500338,0.174151,-5.952755,0.380240,-0.273238,-15.754373,155.502490,42.899820,-15.661668,0.890625,0.890625,
234583018,155.999573,14.297227,3,-0.868896,0.069153,-0.012024,-0.489990,-0.329966,-0.389287,-5.552770,0.418557,-1.221345,-15.232074,155.967956,42.818629,-15.347183,0.910625,0.910625,
234593720,156.587524,14.288139,3,-0.878296,0.069153,-0.011230,-0.472961,0.697732,-0.539400,-5.851158,1.104818,-0.495133,-15.598400,156.487381,42.734581,-15.531087,0.932625,0.932625,
234603197,157.490723,14.292683,3,-0.887451,0.069092,-0.010376,-0.455627,-0.447352,0.048605,-5.433944,-0.063739,-1.057203,-15.155108,156.992254,42.726066,-15.255851,0.952625,0.952625,
234613086,157.091400,14.292683,3,-0.896179,0.069092,-0.009521,-0.438171,0.567038,0.077278,-5.690349,0.537135,-0.263011,-15.492953,157.423933,42.586130,-15.429422,0.970625,0.970625,
234624175,158.288391,14.292683,3,-0.904419,0.069031,-0.008667,-0.420959,-0.299714,-0.391784,-5.771530,0.350072,-1.244285,-15.451815,157.981871,42.530300,-15.445815,0.992625,0.992625,
234633620,158.194305,14.297227,3,-0.912231,0.069031,-0.007812,-0.403809,1.176838,-0.277993,-6.049530,1.246890,-0.125660,-15.844111,158.404153,42.409197,-15.737388,1.000000,1.000000,
234643314,159.580170,14.288139,3,-0.919678,0.069031,-0.006897,-0.386475,0.019682,-0.739354,-5.612859,0.764979,-1.247214,-15.273751,158.932349,42.418892,-15.397982,1.000000,1.000000,
234654328,159.486084,14.292683,3,-0.926636,0.069031,-0.005981,-0.369507,0.400175,-0.503090,-6.409106,0.885939,-0.942187,-16.113752,159.454057,42.315690,-15.921962,1.000000,1.000000,
234663761,160.189270,14.297227,3,-0.933228,0.069092,-0.005066,-0.352539,0.680911,-0.539863,-5.909599,1.105128,-0.743239,-15.627716,159.926267,42.267609,-15.706559,1.000000,1.000000,
234673500,160.788452,14.297227,3,-0.939392,0.069153,-0.004150,-0.335754,0.409613,-0.249695,-5.834182,0.703083,-0.713137,-15.571842,160.423526,42.231563,-15.607939,1.000000,1.000000,
234684428,160.788452,14.297227,3,-0.945251,0.069275,-0.003174,-0.318909,0.554868,-0.857611,-6.094365,1.193022,-1.155635,-15.756677,160.920664,42.108210,-15.716823,1.000000,1.000000,
234693924,161.282074,14.292683,3,-0.950867,0.069458,-0.002136,-0.301636,0.321377,-0.438924,-6.009593,0.743108,-0.974501,-15.713245,161.356055,42.007746,-15.714203,1.000000,1.000000,
234703620,161.575928,14.288139,3,-0.956299,0.069580,-0.001038,-0.284058,0.086051,0.002023,-5.687490,0.283584,-0.723149,-15.439723,161.784664,41.887529,-15.513270,1.000000,1.000000,
234714706,161.786133,14.297227,3,-0.961243,0.069763,0.000122,-0.266724,0.534448,-0.995677,-6.055286,1.196417,-1.388189,-15.687083,162.248207,41.713883,-15.640510,1.000000,1.000000,
234724023,162.479553,14.292683,3,-0.965942,0.069885,0.001343,-0.249084,0.277287,0.001581,-5.578284,0.445816,-0.617791,-15.338485,162.659400,41.602326,-15.419412,1.000000,1.000000,
234735037,162.973236,14.288139,3,-0.970398,0.070007,0.002686,-0.231018,0.273312,-0.037085,-5.489606,0.463563,-0.655921,-15.243514,163.148167,41.476419,-15.290646,1.000000,1.000000,
234744270,162.984222,14.297227,3,-0.974548,0.070129,0.004028,-0.212952,-0.083245,-0.455014,-5.970337,0.335368,-1.257384,-15.642352,163.513993,41.309688,-15.548113,1.000000,1.000000,
234754015,163.078369,14.292683,3,-0.978333,0.070251,0.005371,-0.194702,0.795442,-0.251320,-5.685070,1.043980,-0.704240,-15.403136,163.872202,41.101181,-15.441982,1.000000,1.000000,
234764774,164.170929,14.288139,3,-0.981750,0.070312,0.006836,-0.176514,0.168850,-0.572898,-5.677657,0.574063,-1.249446,-15.339320,164.343460,40.976048,-15.366828,1.000000,1.000000,
234774296,164.370209,14.288139,3,-0.984863,0.070496,0.008362,-0.158325,0.320246,-0.418904,-5.989582,0.661686,-1.117806,-15.669612,164.735594,40.830367,-15.588481,1.000000,1.000000,
234783984,164.769836,14.288139,3,-0.987549,0.070618,0.009888,-0.140076,0.744375,-0.396689,-5.417436,1.035902,-0.915250,-15.105188,165.133893,40.688623,-15.234686,1.000000,1.000000,
234795070,164.980652,14.297227,3,-0.989990,0.070801,0.011414,-0.121704,0.001803,-0.221372,-5.330163,0.269816,-0.945030,-15.044320,165.568692,40.501318,-15.095329,1.000000,1.000000,
234804443,165.474457,14.292683,3,-0.992004,0.070923,0.012939,-0.103333,0.194614,-0.554635,-5.807105,0.546193,-1.302182,-15.466081,165.938170,40.343511,-15.366738,1.000000,1.000000,
234814321,165.674286,14.292683,3,-0.993774,0.070984,0.014465,-0.084778,0.239875,-0.117140,-5.597433,0.489091,-0.855588,-15.319675,166.309513,40.156839,-15.332286,1.000000,1.000000,
234825095,165.579071,14.297227,3,-0.995117,0.071167,0.015930,-0.066528,0.361735,-0.035721,-5.286503,0.589822,-0.732090,-15.019845,166.668098,39.897249,-15.103563,1.000000,1.000000,
234834733,167.082092,14.301770,3,-0.996094,0.071350,0.017395,-0.048462,0.166638,-0.760234,-5.600466,0.472102,-1.519192,-15.231744,167.093422,39.806189,-15.197398,1.000000,1.000000,
234844505,167.071625,14.292683,3,-0.996765,0.071655,0.018860,-0.030579,0.151053,-0.341612,-5.348527,0.400565,-1.086199,-15.032858,167.479512,39.656368,-15.076946,1.000000,1.000000,
234855666,167.071625,14.292683,3,-0.997131,0.071899,0.020386,-0.012512,0.175750,-0.698760,-5.392891,0.420647,-1.457018,-15.024693,167.880281,39.434094,-15.038694,1.000000,1.000000,
234864936,167.470825,14.292683,3,-0.997131,0.072144,0.021912,0.005554,0.250971,-0.515002,-5.760061,0.496503,-1.349463,-15.409478,168.204085,39.235719,-15.310127,1.000000,1.000000,
234874701,168.164093,14.288139,3,-0.996826,0.072449,0.023376,0.023560,0.612292,-0.038811,-5.387596,0.841781,-0.854320,-15.091829,168.582504,39.082978,-15.150321,1.000000,1.000000,
234885515,169.068298,14.292683,3,-0.996155,0.072632,0.024963,0.041565,0.348937,-0.224894,-5.396452,0.569774,-1.050477,-15.085311,169.052957,38.984803,-15.102730,1.000000,1.000000,
234895019,168.774200,14.297227,3,-0.995239,0.072815,0.026489,0.059387,0.273287,-0.699404,-5.377888,0.424066,-1.514053,-14.995053,169.394849,38.804747,-15.023905,1.000000,1.000000,
234905940,169.467590,14.292683,3,-0.993958,0.072998,0.027954,0.077026,0.247721,0.265117,-5.011236,0.512927,-0.527150,-14.770228,169.825058,38.653110,-14.838201,1.000000,1.000000,
234915388,169.866882,14.292683,3,-0.992371,0.073242,0.029419,0.094421,-0.238572,0.495396,-5.153120,0.098336,-0.254683,-14.976890,170.193775,38.517218,-14.939728,1.000000,1.000000,
234924998,170.173035,14.297227,3,-0.990601,0.073364,0.030884,0.111511,0.502998,-0.450765,-5.090238,0.624429,-1.327937,-14.726730,170.561175,38.372918,-14.783803,1.000000,1.000000,
234936092,169.773193,14.297227,3,-0.988403,0.073425,0.032288,0.128845,-0.073428,0.379992,-4.688303,0.239200,-0.339911,-14.491862,170.907004,38.106701,-14.570087,1.000000,1.000000,
234945572,170.466614,14.292683,3,-0.985962,0.073364,0.033691,0.146301,0.032463,-0.318643,-5.135139,0.169395,-1.105431,-14.819893,171.223405,37.906643,-14.752958,1.000000,1.000000,
234955270,171.160614,14.288139,3,-0.983154,0.073364,0.035034,0.163879,-0.116325,-0.338985,-5.305875,0.017488,-1.107840,-15.000881,171.584020,37.752731,-14.934450,1.000000,1.000000,
234966044,171.276825,14.301770,3,-0.980042,0.073242,0.036377,0.181213,0.067292,0.360486,-4.547209,0.401745,-0.413737,-14.325996,171.959166,37.557119,-14.489031,1.000000,1.000000,
234975506,171.959350,14.288139,3,-0.976685,0.073120,0.037720,0.198303,-0.158858,0.095460,-4.499430,0.097279,-0.568044,-14.268632,172.313919,37.422194,-14.327688,1.000000,1.000000,
234985220,171.865661,14.292683,3,-0.973083,0.072998,0.039124,0.215149,-0.219909,-0.216299,-5.013189,-0.065678,-0.908615,-14.744031,172.631852,37.218943,-14.632472,1.000000,1.000000,
234996111,172.076080,14.301770,3,-0.969238,0.072754,0.040405,0.231689,0.028559,0.172858,-4.527499,0.309466,-0.595525,-14.286454,172.980684,36.989040,-14.379169,1.000000,1.000000,
235005655,172.958130,14.288139,3,-0.965210,0.072449,0.041687,0.247742,-0.206001,-0.124141,-4.706777,-0.034029,-0.772616,-14.446137,173.330786,36.848110,-14.428193,1.000000,1.000000,
235015493,173.074859,14.301770,3,-0.960999,0.072083,0.042908,0.263428,0.294256,-0.339810,-5.059202,0.300294,-1.256689,-14.710340,173.666949,36.669110,-14.634739,1.000000,1.000000,
235026263,173.663269,14.292683,3,-0.956604,0.071533,0.044067,0.278992,-0.074886,0.271573,-4.639965,0.295734,-0.486931,-14.411680,174.060678,36.513347,-14.471448,1.000000,1.000000,
235035799,174.556457,14.288139,3,-0.951965,0.070923,0.045227,0.294434,0.379856,-0.011604,-4.852611,0.522282,-1.007900,-14.532155,174.457902,36.441530,-14.515889,1.000000,1.000000,
235045388,173.780029,14.306314,3,-0.947083,0.070190,0.046326,0.309814,-0.375876,-0.062838,-4.658388,-0.129283,-0.589718,-14.432947,174.738821,36.212325,-14.455171,1.000000,1.000000,
235056474,174.568481,14.297227,3,-0.941956,0.069397,0.047424,0.325012,0.230006,0.209707,-4.635670,0.515470,-0.736398,-14.356746,175.122325,36.030404,-14.383119,1.000000,1.000000,
235066082,175.556000,14.288139,3,-0.936707,0.068481,0.048401,0.340027,0.127959,-0.154416,-4.496183,0.197444,-0.929093,-14.197403,175.511343,35.952520,-14.247165,1.000000,1.000000,
235077100,175.872253,14.301770,3,-0.931213,0.067444,0.049377,0.354736,-0.084500,-0.175323,-4.772462,0.025557,-0.846274,-14.497972,175.942792,35.841285,-14.430768,1.000000,1.000000,
235086546,175.567505,14.297227,3,-0.925720,0.066345,0.050232,0.369019,0.029188,-0.232584,-4.472432,0.058496,-0.904180,-14.191844,176.243056,35.656487,-14.255864,1.000000,1.000000,
235096159,176.366577,14.297227,3,-0.920044,0.065247,0.051025,0.382935,0.227981,-0.197234,-4.728623,0.224825,-1.052478,-14.419104,176.597529,35.534481,-14.375364,1.000000,1.000000,
235107124,176.755676,14.288139,3,-0.914307,0.064087,0.051758,0.396545,-0.001868,-0.081629,-4.261987,0.125169,-0.737070,-13.999873,177.002193,35.402014,-14.100486,1.000000,1.000000,
235116355,176.471832,14.301770,3,-0.908386,0.062927,0.052429,0.410034,0.415555,0.400426,-4.237835,0.752197,-0.716464,-13.949455,177.275214,35.201653,-13.989924,1.000000,1.000000,
235126120,177.272034,14.301770,3,-0.902222,0.061646,0.053101,0.423462,0.249287,-0.122308,-4.165982,0.246712,-0.917241,-13.865502,177.617983,35.065825,-13.898840,1.000000,1.000000,
235137229,178.259796,14.292683,3,-0.895935,0.060425,0.053711,0.436768,0.591690,-0.583687,-4.463874,0.095117,-1.509562,-14.079517,178.070988,34.995219,-14.031105,1.000000,1.000000,
235146645,177.565826,14.297227,3,-0.889404,0.059143,0.054260,0.450073,0.027940,0.196934,-4.112447,0.356284,-0.548267,-13.871301,178.349231,34.796459,-13.914120,1.000000,1.000000,
235156346,178.965301,14.297227,3,-0.882629,0.057861,0.054871,0.463318,0.281303,-0.273474,-4.396227,0.124227,-1.061041,-14.087705,178.747822,34.742402,-14.041193,1.000000,1.000000,
235167203,178.765747,14.297227,3,-0.875488,0.056519,0.055481,0.476685,0.182740,-0.153978,-4.409962,0.158780,-0.905410,-14.122765,179.125982,34.591492,-14.100908,1.000000,1.000000,
235176685,179.259704,14.292683,3,-0.868286,0.055237,0.056091,0.489746,-0.072423,0.279369,-3.879584,0.371211,-0.385636,-13.654568,179.466786,34.480164,-13.774164,1.000000,1.000000,
235186525,179.565063,14.297227,3,-0.860962,0.053894,0.056763,0.502625,0.452396,-0.024427,-4.115599,0.382990,-1.025170,-13.794307,179.815244,34.357593,-13.788910,1.000000,1.000000,
235197502,179.870453,14.301770,3,-0.853516,0.052612,0.057373,0.515198,0.209223,0.066005,-4.181855,0.337785,-0.776075,-13.899960,180.197080,34.212429,-13.870204,1.000000,1.000000,
235206991,180.364471,14.297227,3,-0.845947,0.051331,0.058105,0.527588,0.416238,0.384674,-3.843006,0.698540,-0.773466,-13.540354,180.537912,34.106636,-13.628737,1.000000,1.000000,
235216678,180.364471,14.297227,3,-0.838379,0.050110,0.058838,0.539612,0.218490,-0.064548,-4.351529,0.226614,-0.871098,-14.060898,180.850258,33.947153,-13.945101,1.000000,1.000000,
235227809,180.964294,14.297227,3,-0.830627,0.048828,0.059570,0.551514,0.475193,-0.272417,-4.139000,0.120592,-1.153919,-13.818108,181.238704,33.808538,-13.852135,1.000000,1.000000,
235237085,181.764313,14.297227,3,-0.822754,0.047546,0.060303,0.563171,0.355616,0.363667,-4.008160,0.651438,-0.789929,-13.714698,181.604441,33.752392,-13.751524,1.000000,1.000000,
235246991,181.259247,14.292683,3,-0.814819,0.046326,0.061035,0.574646,0.159164,-0.306951,-3.896853,-0.056035,-0.826200,-13.629160,181.903553,33.571117,-13.661948,1.000000,1.000000,
235257970,182.564392,14.297227,3,-0.806519,0.045105,0.061768,0.586243,0.531345,-0.153656,-4.101010,0.206153,-1.148367,-13.775825,182.337557,33.508351,-13.745311,1.000000,1.000000,
235267418,182.658722,14.292683,3,-0.797974,0.043884,0.062561,0.597778,0.013925,0.101168,-3.806604,0.288531,-0.537423,-13.563501,182.685760,33.423641,-13.612217,1.000000,1.000000,
235278156,183.258697,14.292683,3,-0.789246,0.042786,0.063354,0.609314,0.136178,-0.147889,-3.854602,0.080514,-0.726094,-13.594558,183.101349,33.354536,-13.599290,1.000000,1.000000,
235287672,183.458862,14.292683,3,-0.780273,0.041626,0.064148,0.620728,0.451540,0.074616,-4.114542,0.377397,-1.020105,-13.800155,183.453983,33.271448,-13.746333,1.000000,1.000000,
235297274,182.869873,14.301770,3,-0.771423,0.040527,0.064941,0.631714,0.380055,0.099714,-3.656532,0.352618,-0.881264,-13.358406,183.714341,33.064775,-13.462351,1.000000,1.000000,
235308415,184.259064,14.292683,3,-0.762512,0.039490,0.065674,0.642395,0.276798,-0.021176,-3.939144,0.228046,-0.851106,-13.655179,184.136476,32.985532,-13.603511,1.000000,1.000000,
235317559,184.353393,14.288139,3,-0.753540,0.038513,0.066467,0.652893,0.792999,-0.150852,-3.619921,0.143922,-1.327314,-13.267083,184.459306,32.893671,-13.357228,1.000000,1.000000,
235327421,184.459259,14.292683,3,-0.744385,0.037476,0.067322,0.663269,0.184127,0.200045,-3.685481,0.413751,-0.691570,-13.413493,184.783044,32.761385,-13.398417,1.000000,1.000000,
235338217,184.859131,14.292683,3,-0.735291,0.036438,0.068176,0.673340,0.522573,-0.191265,-3.913333,0.058589,-1.103676,-13.592313,185.143562,32.624863,-13.540359,1.000000,1.000000,
235347736,185.164673,14.297227,3,-0.726135,0.035400,0.069092,0.683167,0.332294,-0.095810,-3.448827,0.104310,-0.843945,-13.158964,185.455652,32.502547,-13.261158,1.000000,1.000000,
235357455,185.459228,14.292683,3,-0.716980,0.034485,0.070068,0.692688,0.178266,0.102482,-3.547938,0.301427,-0.694701,-13.272149,185.771275,32.374033,-13.269204,1.000000,1.000000,
235368593,185.459228,14.292683,3,-0.707703,0.033508,0.071045,0.702148,0.302798,-0.077879,-3.654597,0.121964,-0.844930,-13.368678,186.099750,32.183510,-13.342024,1.000000,1.000000,
235377904,186.259064,14.292683,3,-0.698242,0.032593,0.072021,0.711426,0.359018,-0.077758,-3.598075,0.117539,-0.887137,-13.306725,186.414809,32.081129,-13.316183,1.000000,1.000000,
235387780,185.965027,14.297227,3,-0.688965,0.031738,0.073059,0.720398,0.229038,0.123574,-3.382305,0.300923,-0.740623,-13.101679,186.685969,31.891485,-13.159156,1.000000,1.000000,
235398514,186.270599,14.301770,3,-0.679565,0.030884,0.074036,0.729248,0.154966,-0.375224,-3.798593,-0.167401,-0.706638,-13.556406,186.985873,31.690519,-13.449963,1.000000,1.000000,
235408127,187.659210,14.292683,3,-0.669983,0.030090,0.075134,0.737976,0.145946,0.510737,-3.354545,0.682807,-0.699080,-13.051412,187.357425,31.655824,-13.158203,1.000000,1.000000,
235417956,187.365112,14.297227,3,-0.660400,0.029297,0.076111,0.746460,0.330766,-0.362381,-3.372481,-0.205229,-0.800587,-13.106535,187.668708,31.528030,-13.120380,1.000000,1.000000,
235429087,187.271271,14.301770,3,-0.651123,0.028625,0.077209,0.754517,0.004172,-0.321757,-3.533948,-0.110227,-0.512203,-13.312028,187.978963,31.326755,-13.260676,1.000000,1.000000,
235438378,188.471283,14.301770,3,-0.641968,0.027893,0.078186,0.762207,0.364259,0.043882,-3.320566,0.178988,-0.879223,-13.023417,188.318852,31.272414,-13.086990,1.000000,1.000000,
235449359,188.165619,14.297227,3,-0.632568,0.027100,0.079163,0.769958,-0.089632,-0.389049,-3.411571,-0.155360,-0.374788,-13.207039,188.646081,31.106881,-13.174872,1.000000,1.000000,
235458621,188.565643,14.297227,3,-0.623047,0.026367,0.080139,0.777649,0.201763,-0.392798,-3.544282,-0.209437,-0.672366,-13.300037,188.925548,30.972767,-13.266499,1.000000,1.000000,
235468364,189.071594,14.301770,3,-0.613403,0.025635,0.080994,0.785156,-0.050659,-0.031337,-3.261665,0.180908,-0.471683,-13.024139,189.241334,30.865456,-13.089079,1.000000,1.000000,
235479152,189.671936,14.301770,3,-0.603882,0.024902,0.081848,0.792480,-0.164076,-0.108362,-3.138434,0.131460,-0.324771,-12.927973,189.616723,30.783534,-12.971141,1.000000,1.000000,
235488627,189.766327,14.297227,3,-0.593994,0.024170,0.082642,0.799866,0.466981,-0.533345,-3.519113,-0.432391,-0.861397,-13.262886,189.922788,30.677947,-13.184714,1.000000,1.000000,
235498341,189.671936,14.301770,3,-0.583923,0.023438,0.083496,0.807129,0.193543,0.067912,-3.045380,0.184979,-0.702667,-12.762367,190.195090,30.520380,-12.875534,1.000000,1.000000,
235509446,190.061523,14.292683,3,-0.573730,0.022705,0.084290,0.814392,0.041568,0.028501,-3.147027,0.200572,-0.562187,-12.889662,190.519837,30.359411,-12.885876,1.000000,1.000000,
235518928,189.766327,14.297227,3,-0.563416,0.021973,0.084961,0.821472,0.033787,-0.408913,-3.319018,-0.190183,-0.437230,-13.110440,190.731539,30.133335,-13.050269,1.000000,1.000000,
235528663,191.556579,14.288139,3,-0.553101,0.021240,0.085632,0.828430,0.333597,0.204635,-3.119916,0.243899,-0.900300,-12.805869,191.106925,30.119331,-12.871356,1.000000,1.000000,
235539427,191.756378,14.288139,3,-0.542664,0.020508,0.086304,0.835205,0.154949,-0.111945,-3.232984,0.029617,-0.639695,-12.979031,191.495460,30.066499,-12.950179,1.000000,1.000000,
235548890,191.166931,14.297227,3,-0.532349,0.019775,0.086975,0.841797,0.158541,-0.527925,-3.237423,-0.345003,-0.471160,-13.036405,191.746463,29.898863,-13.013301,1.000000,1.000000,
235558590,191.873871,14.301770,3,-0.521912,0.019043,0.087524,0.848267,0.163685,0.080207,-2.836415,0.163682,-0.658719,-12.557343,192.048660,29.794116,-12.679516,1.000000,1.000000,
235569665,191.862335,14.292683,3,-0.511169,0.018311,0.088135,0.854797,0.155547,-0.181275,-3.233723,-0.040188,-0.600304,-12.984824,192.359154,29.625556,-12.903017,1.000000,1.000000,
235579152,192.062652,14.292683,3,-0.500122,0.017517,0.088684,0.861206,0.338425,-0.132533,-3.163109,-0.096298,-0.771868,-12.887954,192.609903,29.463307,-12.891990,1.000000,1.000000,
235589007,192.569305,14.297227,3,-0.488892,0.016724,0.089233,0.867615,-0.075892,0.031450,-2.953651,0.239631,-0.469254,-12.708863,192.895586,29.332617,-12.757932,1.000000,1.000000,
235599800,192.579803,14.306314,3,-0.477478,0.015869,0.089722,0.873901,0.151847,-0.109177,-2.966163,0.004202,-0.584844,-12.716485,193.179781,29.153102,-12.727591,1.000000,1.000000,
235609285,193.475647,14.301770,3,-0.466064,0.015015,0.090210,0.880005,0.260074,-0.072635,-3.178437,-0.017726,-0.729880,-12.909290,193.485374,29.070492,-12.860604,1.000000,1.000000,
235620252,193.664490,14.292683,3,-0.454712,0.014160,0.090637,0.885925,0.167024,-0.029268,-2.887077,0.048306,-0.626309,-12.628204,193.821403,28.955925,-12.690475,1.000000,1.000000,
235629392,193.570068,14.297227,3,-0.443115,0.013245,0.091064,0.891724,0.175413,-0.446305,-2.990516,-0.285436,-0.402195,-12.793445,194.060315,28.804971,-12.765854,1.000000,1.000000,
235639212,194.370544,14.297227,3,-0.431396,0.012329,0.091553,0.897461,-0.033807,-0.366986,-3.147417,-0.080746,-0.304129,-12.949805,194.373613,28.719358,-12.900515,1.000000,1.000000,
235650367,194.464966,14.292683,3,-0.419556,0.011353,0.091980,0.903015,0.076101,0.211338,-2.672803,0.261466,-0.668320,-12.383320,194.702381,28.593233,-12.521902,1.000000,1.000000,
235659853,194.170135,14.297227,3,-0.407593,0.010315,0.092346,0.908447,-0.137031,-0.175181,-2.873792,0.124324,-0.293097,-12.663798,194.919647,28.401140,-12.625777,1.000000,1.000000,
235669454,194.876770,14.301770,3,-0.395325,0.009277,0.092712,0.913818,0.110804,-0.029389,-2.943599,0.064362,-0.582852,-12.687224,195.187444,28.273569,-12.670760,1.000000,1.000000,
235680435,194.876770,14.301770,3,-0.383057,0.008240,0.093079,0.919006,-0.038428,0.231328,-2.746035,0.342886,-0.627999,-12.463015,195.466030,28.095108,-12.518680,1.000000,1.000000,
235689804,195.877746,14.301770,3,-0.370667,0.007141,0.093384,0.924011,0.222708,-0.355249,-2.764743,-0.256354,-0.397940,-12.558653,195.769982,28.032986,-12.547942,1.000000,1.000000,
235699682,195.783844,14.306314,3,-0.358093,0.006042,0.093689,0.928955,0.046430,-0.027713,-2.831821,0.102034,-0.523911,-12.584500,196.047665,27.910535,-12.574705,1.000000,1.000000,
235710739,196.466949,14.292683,3,-0.345398,0.004883,0.093933,0.933716,-0.206012,-0.083521,-2.681863,0.252506,-0.293235,-12.465939,196.397553,27.828748,-12.495082,1.000000,1.000000,
235720181,196.973816,14.297227,3,-0.332642,0.003662,0.094177,0.938354,0.121096,-0.215311,-2.718867,-0.072902,-0.406505,-12.502193,196.717560,27.788554,-12.500288,1.000000,1.000000,
235729803,196.278595,14.301770,3,-0.319763,0.002441,0.094360,0.942810,0.199740,-0.087451,-2.741130,-0.058732,-0.555432,-12.497399,196.940396,27.609394,-12.498173,1.000000,1.000000,
235740881,196.973816,14.297227,3,-0.307068,0.001221,0.094543,0.946960,0.254589,0.134621,-2.287242,0.002529,-0.674003,-12.010666,197.248881,27.480620,-12.141293,1.000000,1.000000,
235750317,197.067718,14.292683,3,-0.294556,0.000000,0.094666,0.950928,0.189155,-0.089288,-2.928271,-0.045663,-0.569249,-12.685699,197.489433,27.336274,-12.539826,1.000000,1.000000,
235760079,197.774536,14.297227,3,-0.282104,-0.001221,0.094788,0.954712,0.057477,-0.134718,-2.635943,0.025766,-0.397368,-12.415993,197.784260,27.253309,-12.449174,1.000000,1.000000,
235771045,197.786072,14.306314,3,-0.269836,-0.002502,0.094910,0.958191,0.132592,0.013691,-2.588695,0.037331,-0.554305,-12.328809,198.082564,27.118315,-12.361061,1.000000,1.000000,
235780586,198.174927,14.297227,3,-0.257568,-0.003723,0.094971,0.961548,-0.082456,-0.063873,-2.598787,0.181732,-0.386105,-12.362173,198.350001,27.012834,-12.361875,1.000000,1.000000,
235791350,197.585632,14.306314,3,-0.245300,-0.004944,0.094971,0.964783,0.269185,0.052322,-2.575188,-0.070595,-0.639008,-12.306188,198.563375,26.777760,-12.321109,1.000000,1.000000,
235800613,198.575867,14.297227,3,-0.233032,-0.006165,0.095032,0.967834,-0.074541,0.136261,-2.389733,0.256019,-0.521326,-12.120772,198.812158,26.667240,-12.174452,1.000000,1.000000,
235810238,198.375397,14.297227,3,-0.220642,-0.007385,0.094971,0.970703,-0.094566,-0.023748,-2.558285,0.209277,-0.404583,-12.316755,199.024524,26.490171,-12.278626,1.000000,1.000000,
235821377,199.388275,14.306314,3,-0.208252,-0.008606,0.094849,0.973450,-0.027813,-0.102947,-2.503088,0.123758,-0.354695,-12.274556,199.355292,26.401989,-12.275646,1.000000,1.000000,
235830583,199.081756,14.301770,3,-0.195801,-0.009888,0.094788,0.976013,0.043324,-0.269996,-2.320623,-0.015672,-0.195018,-12.126446,199.570418,26.253502,-12.166424,1.000000,1.000000,
235840426,199.176239,14.297227,3,-0.183411,-0.011169,0.094727,0.978394,-0.209682,-0.379276,-2.556333,0.201282,-0.048848,-12.381378,199.788766,26.078923,-12.323781,1.000000,1.000000,
235851223,199.883179,14.301770,3,-0.171082,-0.012512,0.094604,0.980652,0.132783,0.442892,-2.258410,0.144764,-0.865439,-11.930584,200.079116,25.962607,-12.035941,1.000000,1.000000,
235860736,200.567108,14.288139,3,-0.158691,-0.013794,0.094482,0.982727,-0.291422,0.080957,-2.162494,0.418166,-0.380627,-11.906701,200.374469,25.915042,-11.941331,1.000000,1.000000,
235870351,200.283661,14.301770,3,-0.146362,-0.015076,0.094360,0.984619,-0.058506,0.053645,-2.707378,0.227821,-0.528142,-12.445797,200.613962,25.783202,-12.310626,1.000000,1.000000,
235881433,200.873108,14.292683,3,-0.134094,-0.016418,0.094238,0.986328,0.064229,0.485030,-2.067009,0.194748,-0.853366,-11.735671,200.924949,25.687473,-11.889730,1.000000,1.000000,
235890982,200.885193,14.301770,3,-0.121887,-0.017761,0.094116,0.987915,-0.008181,0.015522,-2.522579,0.167943,-0.473274,-12.272022,201.165679,25.564814,-12.169587,1.000000,1.000000,
235900837,200.979156,14.297227,3,-0.109924,-0.019104,0.093933,0.989319,-0.097839,-0.001171,-2.291253,0.237483,-0.394100,-12.047162,201.398359,25.421090,-12.079966,1.000000,1.000000,
235911693,201.780701,14.297227,3,-0.098083,-0.020508,0.093872,0.990540,-0.197717,0.634742,-2.161372,0.450197,-0.965854,-11.796889,201.711970,25.344100,-11.872739,1.000000,1.000000,
235921213,201.886749,14.301770,3,-0.086243,-0.021912,0.093811,0.991638,0.161452,-0.152382,-2.344911,-0.037202,-0.307421,-12.136338,201.970211,25.252062,-12.065707,1.000000,1.000000,
235931019,202.287292,14.301770,3,-0.074463,-0.023376,0.093750,0.992554,0.246314,-0.134632,-2.477237,-0.103979,-0.365990,-12.265674,202.248996,25.174308,-12.212093,1.000000,1.000000,
235942174,201.981232,14.297227,3,-0.062866,-0.024902,0.093689,0.993286,0.059790,0.278414,-1.940528,0.103220,-0.638363,-11.656489,202.502256,25.008250,-11.805362,1.000000,1.000000,
235951526,202.582336,14.297227,3,-0.051331,-0.026428,0.093689,0.993896,0.158812,-0.290197,-2.267190,-0.043848,-0.152381,-12.091127,202.743628,24.905896,-12.014557,1.000000,1.000000,
235962439,203.277466,14.292683,3,-0.039795,-0.027954,0.093689,0.994385,0.100662,0.154953,-2.358556,0.062197,-0.601636,-12.084927,203.068269,24.845693,-12.066071,1.000000,1.000000,
235971687,202.582336,14.297227,3,-0.028503,-0.029541,0.093750,0.994751,0.198524,0.346230,-1.976204,-0.049678,-0.721128,-11.681835,203.248802,24.672037,-11.784791,1.000000,1.000000,
235981455,203.489563,14.301770,3,-0.017334,-0.031189,0.093750,0.994934,0.074590,0.116986,-2.219419,0.080357,-0.528452,-11.959667,203.513340,24.587521,-11.912809,1.000000,1.000000,
235992399,203.772583,14.288139,3,-0.006165,-0.032837,0.093811,0.995056,0.238739,-0.310901,-2.291039,-0.078502,-0.129581,-12.121590,203.807684,24.489614,-12.065647,1.000000,1.000000,
236001739,203.289001,14.301770,3,0.004944,-0.034546,0.093811,0.994995,-0.058097,0.299144,-1.944461,0.187995,-0.664765,-11.650241,203.983913,24.310932,-11.761549,1.000000,1.000000,
236011410,204.079193,14.292683,3,0.015991,-0.036194,0.093933,0.994812,0.102320,-0.060808,-2.153461,0.053931,-0.342600,-11.927023,204.228000,24.208349,-11.882684,1.000000,1.000000,
236022539,204.680420,14.292683,3,0.027039,-0.037903,0.093994,0.994507,-0.008561,-0.098850,-2.089207,0.169919,-0.300824,-11.864112,204.542024,24.136701,-11.869088,1.000000,1.000000,
236031964,205.375671,14.288139,3,0.037964,-0.039551,0.094055,0.994080,0.386024,0.136931,-1.957838,-0.254578,-0.483565,-11.728345,204.852596,24.138717,-11.766057,1.000000,1.000000,
236041698,204.785980,14.297227,3,0.049011,-0.041199,0.094116,0.993469,0.020079,-0.017738,-1.882380,0.120838,-0.343328,-11.643841,205.080344,24.016447,-11.676588,1.000000,1.000000,
236052525,205.493835,14.301770,3,0.059998,-0.042786,0.094238,0.992798,0.117275,-0.042247,-2.262629,0.058984,-0.384666,-12.032110,205.381091,23.941546,-11.936848,1.000000,1.000000,
236061997,205.493835,14.301770,3,0.071045,-0.044434,0.094238,0.992004,0.194806,0.277851,-1.887844,-0.087132,-0.610884,-11.618535,205.618657,23.846773,-11.703826,1.000000,1.000000,
236071714,206.001129,14.306314,3,0.081909,-0.046082,0.094299,0.991089,0.095055,-0.249115,-2.174789,0.119859,-0.176777,-11.985382,205.888092,23.781523,-11.909939,1.000000,1.000000,
236082894,206.095672,14.301770,3,0.092712,-0.047668,0.094421,0.990051,0.268207,0.347553,-1.791942,-0.186205,-0.645908,-11.517499,206.174067,23.680316,-11.622653,1.000000,1.000000,
236092347,205.894531,14.301770,3,0.103394,-0.049255,0.094482,0.988892,0.189355,0.022030,-1.732192,-0.048210,-0.328826,-11.512575,206.369370,23.533779,-11.542070,1.000000,1.000000,
236102095,207.003204,14.306314,3,0.114014,-0.050842,0.094482,0.987671,0.271664,-0.171421,-2.182578,-0.046412,-0.217597,-11.999374,206.661682,23.501838,-11.876840,1.000000,1.000000,
236113125,206.991119,14.297227,3,0.124695,-0.052429,0.094482,0.986267,0.343130,0.098502,-1.877142,-0.201133,-0.386433,-11.658393,206.953235,23.417240,-11.716925,1.000000,1.000000,
236122366,206.778412,14.288139,3,0.135498,-0.053955,0.094482,0.984802,0.140468,0.059836,-1.946691,0.008198,-0.412538,-11.710474,207.151603,23.285412,-11.712203,1.000000,1.000000,
236133179,207.191223,14.297227,3,0.146423,-0.055542,0.094421,0.983154,0.391483,-0.328887,-1.992505,-0.110122,0.013846,-11.858885,207.406663,23.162535,-11.819582,1.000000,1.000000,
236142426,208.087829,14.292683,3,0.156982,-0.057007,0.094421,0.981445,0.292238,0.178375,-1.854098,-0.174131,-0.458836,-11.617818,207.688646,23.147080,-11.671880,1.000000,1.000000,
236152293,207.887176,14.292683,3,0.167542,-0.058411,0.094360,0.979614,0.210288,0.100671,-1.771906,-0.083114,-0.389346,-11.543510,207.936356,23.059733,-11.577907,1.000000,1.000000,
236163420,207.297851,14.301770,3,0.177917,-0.059753,0.094299,0.977722,0.307292,-0.289557,-2.086765,-0.007141,-0.069608,-11.930387,208.128186,22.841803,-11.835940,1.000000,1.000000,
236172858,208.193420,14.297227,3,0.188293,-0.061035,0.094177,0.975647,0.083924,0.239809,-1.823590,-0.013604,-0.572107,-11.547331,208.349807,22.741732,-11.624664,1.000000,1.000000,
236182561,208.394073,14.297227,3,0.198608,-0.062256,0.094116,0.973572,0.049404,-0.015861,-1.676399,0.104185,-0.320512,-11.442401,208.574371,22.636648,-11.491238,1.000000,1.000000,
236193562,208.300049,14.301770,3,0.208862,-0.063477,0.093994,0.971313,0.145861,-0.287343,-1.999890,0.159592,-0.105169,-11.818589,208.795171,22.470066,-11.730875,1.000000,1.000000,
236202775,209.090118,14.292683,3,0.219116,-0.064636,0.093872,0.968994,0.244514,0.200323,-1.683668,-0.165950,-0.436763,-11.453371,209.031283,22.404465,-11.527728,1.000000,1.000000,
236212616,209.396911,14.297227,3,0.229492,-0.065735,0.093750,0.966553,0.104493,0.004280,-1.599866,0.045702,-0.299588,-11.370838,209.287823,22.341477,-11.412877,1.000000,1.000000,
236223753,209.396911,14.297227,3,0.239868,-0.066833,0.093628,0.963989,0.161347,-0.187731,-1.930493,0.109985,-0.180130,-11.733485,209.546837,22.225491,-11.647578,1.000000,1.000000,
236233182,209.396911,14.297227,3,0.250244,-0.067871,0.093506,0.961304,0.121418,0.103575,-1.560168,-0.023714,-0.376601,-11.323975,209.740873,22.098586,-11.410684,1.000000,1.000000,
236242795,209.490936,14.292683,3,0.260315,-0.068848,0.093384,0.958496,0.340423,0.079327,-1.817953,-0.181290,-0.295871,-11.622408,209.927733,21.953324,-11.565677,1.000000,1.000000,
236253857,209.797729,14.297227,3,0.270203,-0.069763,0.093262,0.955750,0.033729,-0.204400,-1.726948,0.220045,-0.192860,-11.519546,210.156847,21.808512,-11.531907,1.000000,1.000000,
236263274,209.809814,14.306314,3,0.279968,-0.070679,0.093140,0.952881,0.126832,0.141923,-1.678546,-0.044974,-0.416997,-11.434351,210.326915,21.654036,-11.460491,1.000000,1.000000,
236273013,209.998443,14.297227,3,0.289551,-0.071594,0.093079,0.949951,0.087892,-0.243368,-1.621349,0.195180,-0.114489,-11.425409,210.504370,21.498737,-11.434809,1.000000,1.000000,
236284021,210.906830,14.301770,3,0.298950,-0.072388,0.092957,0.946960,0.054852,-0.036832,-1.785510,0.128624,-0.337670,-11.551663,210.780664,21.425406,-11.520352,1.000000,1.000000,
236293508,210.800690,14.297227,3,0.308350,-0.073181,0.092834,0.943909,0.115320,0.144460,-1.440946,-0.060515,-0.374254,-11.206550,210.985443,21.321889,-11.290633,1.000000,1.000000,
236303136,210.894226,14.292683,3,0.317810,-0.073975,0.092712,0.940735,-0.118402,-0.392058,-1.800481,0.473679,-0.170469,-11.580519,211.181049,21.198145,-11.502844,1.000000,1.000000,
236314267,211.402313,14.297227,3,0.327026,-0.074646,0.092529,0.937500,0.086814,-0.205673,-1.808546,0.207695,-0.195444,-11.596402,211.438463,21.098660,-11.571333,1.000000,1.000000,
236323495,211.413879,14.306314,3,0.336182,-0.075317,0.092407,0.934204,-0.047517,0.087671,-1.315105,0.085680,-0.398220,-11.053645,211.630245,20.993545,-11.192359,1.000000,1.000000,
236334488,211.295654,14.292683,3,0.345276,-0.076050,0.092285,0.930847,-0.104147,-0.094466,-1.738870,0.271160,-0.393322,-11.477798,211.826773,20.822680,-11.401315,1.000000,1.000000,
236343698,211.202118,14.297227,3,0.354187,-0.076660,0.092102,0.927490,0.048170,-0.094672,-1.637645,0.154794,-0.272065,-11.412207,211.955422,20.633165,-11.409289,1.000000,1.000000,
236353464,211.603027,14.297227,3,0.362976,-0.077393,0.092041,0.924011,0.135807,0.163886,-1.461494,-0.098723,-0.368991,-11.230327,212.121112,20.476287,-11.278280,1.000000,1.000000,
236364242,212.204681,14.297227,3,0.371582,-0.078064,0.091858,0.920532,-0.029980,-0.390694,-1.597378,0.414319,-0.119060,-11.390119,212.349513,20.364720,-11.360152,1.000000,1.000000,
236373772,213.018188,14.306314,3,0.380005,-0.078796,0.091736,0.917053,0.170972,-0.185683,-1.723552,0.139526,-0.147857,-11.526512,212.610075,20.344827,-11.481936,1.000000,1.000000,
236383478,212.817413,14.306314,3,0.388428,-0.079529,0.091553,0.913452,0.049610,0.245284,-1.318210,-0.115997,-0.437357,-11.062019,212.827790,20.265222,-11.174536,1.000000,1.000000,
236394558,212.711792,14.301770,3,0.396912,-0.080261,0.091431,0.909790,0.062950,-0.301354,-1.502223,0.287210,-0.105291,-11.301429,213.040007,20.124568,-11.267428,1.000000,1.000000,
236403963,213.006622,14.297227,3,0.405334,-0.080994,0.091248,0.906006,0.163591,0.003767,-1.602744,0.003122,-0.262084,-11.391103,213.225423,20.012889,-11.357965,1.000000,1.000000,
236413800,213.207367,14.297227,3,0.413574,-0.081787,0.091064,0.902222,-0.054761,0.316632,-1.203774,-0.121290,-0.531115,-10.926735,213.419967,19.902973,-11.042282,1.000000,1.000000,
236424646,213.608368,14.297227,3,0.421692,-0.082581,0.090881,0.898376,-0.194266,-0.034059,-1.714118,0.269582,-0.532258,-11.425367,213.654032,19.804352,-11.322720,1.000000,1.000000,
236434166,213.808594,14.297227,3,0.429871,-0.083435,0.090637,0.894470,0.239097,-0.114818,-1.518750,0.049865,-0.112255,-11.332910,213.857551,19.717293,-11.330180,1.000000,1.000000,
236443897,213.513763,14.301770,3,0.437988,-0.084229,0.090454,0.890442,0.011819,-0.051291,-1.299662,0.125085,-0.273661,-11.064591,214.014479,19.563548,-11.135755,1.000000,1.000000,
236455009,214.103424,14.292683,3,0.445984,-0.085083,0.090149,0.886414,-0.010452,-0.371057,-1.598126,0.419510,-0.173951,-11.377224,214.240075,19.449100,-11.312522,1.000000,1.000000,
236464264,214.811432,14.297227,3,0.453796,-0.085876,0.089905,0.882385,-0.000651,-0.112025,-1.437937,0.194562,-0.281808,-11.204028,214.476894,19.422625,-11.233099,1.000000,1.000000,
236474170,214.905517,14.292683,3,0.461609,-0.086731,0.089600,0.878296,-0.008907,0.067732,-1.297435,0.035254,-0.361227,-11.052948,214.711681,19.370532,-11.101219,1.000000,1.000000,
236484997,214.717865,14.301770,3,0.469299,-0.087646,0.089294,0.874146,0.065363,-0.469938,-1.523820,0.461382,-0.058782,-11.322277,214.921355,19.248833,-11.263045,1.000000,1.000000,
236494465,214.823517,14.306314,3,0.476929,-0.088501,0.088989,0.869934,0.058208,0.025910,-1.459136,0.048437,-0.315845,-11.223808,215.093292,19.129385,-11.234322,1.000000,1.000000,
236505422,215.024292,14.306314,3,0.484375,-0.089417,0.088684,0.865723,0.053291,0.127933,-1.171458,-0.061304,-0.306091,-10.939172,215.295325,19.000183,-11.018257,1.000000,1.000000,
236514870,215.413788,14.297227,3,0.491760,-0.090332,0.088318,0.861511,0.001316,-0.339824,-1.440368,0.394730,-0.182387,-11.217318,215.486216,18.910154,-11.163980,1.000000,1.000000,
236524496,215.319183,14.301770,3,0.499084,-0.091248,0.087952,0.857239,0.032343,0.185607,-1.357485,-0.086797,-0.398035,-11.114193,215.650999,18.780739,-11.127534,1.000000,1.000000,
236535657,215.720764,14.301770,3,0.506348,-0.092224,0.087585,0.852905,-0.115386,0.050575,-1.124549,0.079305,-0.398949,-10.853380,215.866939,18.668823,-10.926839,1.000000,1.000000,
236545018,215.626160,14.306314,3,0.513550,-0.093201,0.087158,0.848511,0.075060,-0.341479,-1.542726,0.376953,-0.162215,-11.326180,216.017031,18.530095,-11.219177,1.000000,1.000000,
236554731,215.921051,14.301770,3,0.520813,-0.094177,0.086731,0.844055,-0.107986,-0.030139,-1.263995,0.159500,-0.393456,-10.997360,216.186888,18.410398,-11.056796,1.000000,1.000000,
236565663,216.522980,14.301770,3,0.528015,-0.095215,0.086243,0.839478,0.055827,0.166916,-1.230436,-0.093235,-0.326291,-10.999866,216.421187,18.335083,-11.015120,1.000000,1.000000,
236575028,215.626160,14.306314,3,0.535156,-0.096191,0.085754,0.834900,-0.039849,-0.467603,-1.380423,0.534596,-0.187900,-11.147603,216.512685,18.123363,-11.112104,1.000000,1.000000,
236584756,216.310058,14.292683,3,0.542175,-0.097229,0.085266,0.830261,0.184727,0.066761,-1.237729,-0.053276,-0.168685,-11.038960,216.668181,17.988831,-11.058559,1.000000,1.000000,
236595929,216.617584,14.297227,3,0.549011,-0.098267,0.084778,0.825684,0.060263,0.128481,-1.112538,-0.067716,-0.275379,-10.885663,216.863424,17.860380,-10.931990,1.000000,1.000000,
236605402,217.112823,14.292683,3,0.555725,-0.099304,0.084229,0.821106,-0.040979,-0.447583,-1.360412,0.523880,-0.217294,-11.116976,217.057127,17.788695,-11.067409,1.000000,1.000000,
236615170,217.313141,14.292683,3,0.562317,-0.100403,0.083679,0.816528,0.134621,-0.142301,-1.385570,0.180655,-0.175437,-11.181181,217.255999,17.713840,-11.150696,1.000000,1.000000,
236626041,217.325226,14.301770,3,0.568665,-0.101440,0.083191,0.812073,-0.106787,0.171475,-0.916340,-0.064486,-0.386598,-10.650635,217.454893,17.607176,-10.784626,1.000000,1.000000,
236635397,217.526062,14.301770,3,0.574951,-0.102417,0.082642,0.807495,-0.096923,-0.368681,-1.435888,0.477690,-0.332561,-11.165480,217.626259,17.512192,-11.063431,1.000000,1.000000,
236645171,217.030273,14.306314,3,0.581116,-0.103516,0.082031,0.803040,0.139573,0.068371,-1.117010,-0.028891,-0.179352,-10.914653,217.737229,17.325672,-10.954518,1.000000,1.000000,
236656319,217.821014,14.297227,3,0.587219,-0.104553,0.081421,0.798523,-0.157458,-0.027577,-1.054176,0.147276,-0.407799,-10.779143,217.938111,17.216636,-10.826135,1.000000,1.000000,
236665762,218.517151,14.292683,3,0.593323,-0.105652,0.080811,0.793884,0.017178,-0.339149,-1.362127,0.410905,-0.238893,-11.115322,218.158265,17.189801,-11.037835,1.000000,1.000000,
236676602,217.632263,14.306314,3,0.599243,-0.106750,0.080200,0.789368,-0.002639,0.070520,-1.021194,0.010386,-0.283682,-10.782689,218.291206,17.002253,-10.851056,1.000000,1.000000,
236685863,218.222687,14.297227,3,0.605103,-0.107849,0.079529,0.784790,-0.091801,-0.177817,-1.167539,0.285899,-0.339397,-10.901496,218.441322,16.892012,-10.887981,1.000000,1.000000,
236695525,219.332184,14.301770,3,0.610962,-0.108948,0.078796,0.780151,-0.038014,-0.117848,-1.070783,0.211734,-0.279689,-10.824955,218.693242,16.906851,-10.841843,1.000000,1.000000,
236706365,218.140167,14.310858,3,0.616760,-0.110046,0.078125,0.775452,0.074001,0.208707,-1.003752,-0.140228,-0.241012,-10.785133,218.820461,16.716047,-10.800328,1.000000,1.000000,
236715745,219.025085,14.297227,3,0.622620,-0.111145,0.077393,0.770752,-0.134353,-0.255864,-1.087266,0.365853,-0.353874,-10.805032,218.997289,16.642248,-10.803772,1.000000,1.000000,
236725502,219.143402,14.310858,3,0.628296,-0.112305,0.076660,0.765991,0.050273,-0.219477,-1.253878,0.302922,-0.233419,-11.018016,219.173760,16.554290,-10.960609,1.000000,1.000000,
236736580,219.332184,14.301770,3,0.633972,-0.113403,0.075867,0.761230,0.005447,0.250846,-0.812351,-0.177039,-0.256167,-10.593898,219.372383,16.457932,-10.692158,1.000000,1.000000,
236746067,219.332184,14.301770,3,0.639465,-0.114563,0.075134,0.756470,-0.079914,-0.215809,-1.000622,0.304198,-0.299012,-10.732216,219.524005,16.350683,-10.721482,1.000000,1.000000,
236755768,219.131836,14.301770,3,0.644958,-0.115723,0.074402,0.751709,-0.051785,-0.138754,-1.188835,0.244541,-0.342537,-10.923833,219.642834,16.192150,-10.869614,1.000000,1.000000,
236766711,219.733917,14.301770,3,0.650330,-0.116882,0.073669,0.747009,0.020178,0.271540,-0.714099,-0.213359,-0.207981,-10.507554,219.828535,16.089214,-10.604567,1.000000,1.000000,
236776099,219.839630,14.306314,3,0.655579,-0.118042,0.072937,0.742249,-0.071760,-0.217605,-1.168922,0.322655,-0.350767,-10.890330,219.980202,15.988378,-10.813760,1.000000,1.000000,
236785955,220.135162,14.301770,3,0.660828,-0.119202,0.072205,0.737488,0.040884,-0.296492,-1.046823,0.374328,-0.201272,-10.803239,220.152774,15.902646,-10.806058,1.000000,1.000000,
236797075,219.945862,14.310858,3,0.665955,-0.120422,0.071411,0.732727,-0.008633,0.210237,-0.920714,-0.126409,-0.275891,-10.697231,220.308211,15.755998,-10.726391,1.000000,1.000000,
236806579,220.536438,14.301770,3,0.671021,-0.121643,0.070679,0.727966,-0.228514,-0.115483,-0.992369,0.213989,-0.477422,-10.680488,220.480370,15.685339,-10.692788,1.000000,1.000000,
236816193,220.937713,14.301770,3,0.676025,-0.122864,0.069946,0.723206,0.021631,-0.237107,-1.065030,0.329678,-0.244175,-10.814681,220.676478,15.642773,-10.782020,1.000000,1.000000,
236827316,220.925629,14.292683,3,0.680908,-0.124084,0.069214,0.718445,-0.131778,0.340865,-0.834384,-0.261779,-0.374595,-10.593543,220.874803,15.558180,-10.644045,1.000000,1.000000,
236836527,221.233276,14.297227,3,0.685852,-0.125305,0.068542,0.713623,-0.102046,-0.155789,-0.959428,0.245038,-0.352584,-10.679253,221.053604,15.508244,-10.669819,1.000000,1.000000,
236847527,221.445251,14.306314,3,0.690674,-0.126587,0.067810,0.708801,-0.151345,-0.236518,-1.145495,0.337860,-0.454584,-10.840443,221.262813,15.441522,-10.794724,1.000000,1.000000,
236856675,221.634582,14.297227,3,0.695374,-0.127930,0.067078,0.703979,0.018840,0.093897,-0.656602,-0.028583,-0.161905,-10.440685,221.440933,15.396408,-10.535550,1.000000,1.000000,
236866550,221.056030,14.315402,3,0.700073,-0.129211,0.066406,0.699158,-0.190521,-0.174828,-0.955322,0.258495,-0.445531,-10.650236,221.553907,15.239709,-10.619506,1.000000,1.000000,
236877366,221.244324,14.306314,3,0.704590,-0.130554,0.065674,0.694397,0.030523,0.103293,-0.696576,-0.031310,-0.165500,-10.481529,221.687104,15.084909,-10.518500,1.000000,1.000000,
236886860,221.834991,14.297227,3,0.709045,-0.131897,0.065002,0.689697,-0.132826,0.074189,-0.767938,-0.006051,-0.346223,-10.507056,221.844672,15.005085,-10.510122,1.000000,1.000000,
236896566,222.047485,14.306314,3,0.713257,-0.133301,0.064270,0.685059,-0.077929,-0.334871,-1.021690,0.422567,-0.366029,-10.720990,222.010106,14.928193,-10.664488,1.000000,1.000000,
236907496,221.846557,14.306314,3,0.717407,-0.134644,0.063599,0.680542,-0.052178,0.191722,-0.829907,-0.112194,-0.276762,-10.603019,222.156252,14.790441,-10.619490,1.000000,1.000000,
236916979,222.543487,14.301770,3,0.721436,-0.136047,0.062927,0.676025,-0.178958,-0.064466,-0.806619,0.125119,-0.404148,-10.513696,222.334859,14.742950,-10.542043,1.000000,1.000000,
236926829,222.543487,14.301770,3,0.725403,-0.137390,0.062256,0.671631,-0.159622,-0.442289,-0.939815,0.516592,-0.450715,-10.606234,222.500452,14.666426,-10.589034,1.000000,1.000000,
236937639,222.247894,14.306314,3,0.729370,-0.138794,0.061646,0.667053,-0.093562,0.311127,-0.806920,-0.233128,-0.303705,-10.580724,222.633067,14.518274,-10.582951,1.000000,1.000000,
236947221,222.543487,14.301770,3,0.733337,-0.140198,0.060974,0.662476,-0.080102,0.035538,-0.632639,0.018891,-0.260900,-10.381393,222.762731,14.406780,-10.435400,1.000000,1.000000,
236956973,222.649750,14.306314,3,0.737244,-0.141663,0.060303,0.657898,-0.182916,-0.334670,-1.085713,0.422738,-0.519067,-10.744288,222.891390,14.286848,-10.661522,1.000000,1.000000,
236968109,222.543487,14.301770,3,0.741089,-0.143127,0.059692,0.653259,-0.164243,0.156025,-0.538433,-0.118817,-0.296500,-10.288991,223.014981,14.125615,-10.388810,1.000000,1.000000,
236977475,223.547180,14.301770,3,0.744873,-0.144592,0.059021,0.648682,0.009125,-0.175039,-0.816896,0.255247,-0.249786,-10.553328,223.200197,14.098644,-10.509245,1.000000,1.000000,
236987331,223.252045,14.306314,3,0.748535,-0.146057,0.058411,0.644165,-0.263699,-0.214923,-1.060808,0.280342,-0.592097,-10.708499,223.343821,14.000063,-10.655109,1.000000,1.000000,
236998286,223.748657,14.301770,3,0.752197,-0.147522,0.057800,0.639587,0.012879,0.174294,-0.546856,-0.112402,-0.127593,-10.350192,223.537176,13.940795,-10.431894,1.000000,1.000000,
237007769,223.559784,14.310858,3,0.755798,-0.149048,0.057190,0.635071,-0.133615,0.054592,-0.748349,0.003990,-0.343847,-10.479671,223.671172,13.844456,-10.466869,1.000000,1.000000,
237018523,223.051636,14.306314,3,0.759338,-0.150574,0.056580,0.630554,-0.176563,-0.341786,-0.809578,0.382805,-0.465602,-10.461458,223.757297,13.648774,-10.462908,1.000000,1.000000,
237027965,223.949097,14.301770,3,0.762817,-0.152100,0.056030,0.625977,0.020673,0.103379,-0.696096,-0.016982,-0.179615,-10.484536,223.904942,13.575695,-10.478741,1.000000,1.000000,
237037569,223.949097,14.301770,3,0.766235,-0.153625,0.055481,0.621460,-0.060079,-0.112986,-0.615383,0.162042,-0.269199,-10.348453,224.039273,13.482239,-10.383364,1.000000,1.000000,
237048723,223.547180,14.301770,3,0.769653,-0.155212,0.054932,0.616882,0.013510,-0.294630,-0.887464,0.388679,-0.322491,-10.591220,224.139652,13.298419,-10.535525,1.000000,1.000000,
237058118,224.752441,14.301770,3,0.773071,-0.156799,0.054321,0.612244,-0.040050,0.292073,-0.691210,-0.213975,-0.197070,-10.491233,224.325600,13.282677,-10.503101,1.000000,1.000000,
237067836,224.055359,14.306314,3,0.776428,-0.158386,0.053772,0.607605,-0.125291,0.096469,-0.521186,-0.069322,-0.261599,-10.272083,224.427134,13.146597,-10.333984,1.000000,1.000000,
237078658,224.350494,14.301770,3,0.779785,-0.160034,0.053162,0.602966,-0.031281,0.052891,-0.832346,0.038385,-0.282570,-10.581308,224.561097,13.021911,-10.515038,1.000000,1.000000,
237088131,225.247528,14.297227,3,0.783020,-0.161682,0.052612,0.598267,-0.049439,0.215058,-0.484155,-0.162047,-0.151770,-10.278435,224.752819,13.017123,-10.341833,1.000000,1.000000,
237097874,224.551452,14.301770,3,0.786255,-0.163330,0.052063,0.593628,-0.126612,-0.312713,-0.831460,0.354871,-0.461314,-10.491314,224.858979,12.887932,-10.451261,1.000000,1.000000,
237108780,224.752441,14.301770,3,0.789368,-0.165039,0.051453,0.589050,0.024097,0.015740,-0.549027,0.054234,-0.153466,-10.331082,224.988248,12.760992,-10.363284,1.000000,1.000000,
237118250,224.645630,14.297227,3,0.792480,-0.166748,0.050903,0.584473,-0.087194,0.135955,-0.502882,-0.091188,-0.211041,-10.279916,225.074290,12.617498,-10.302254,1.000000,1.000000,
237128135,224.846100,14.297227,3,0.795532,-0.168457,0.050354,0.579834,-0.095640,-0.113489,-0.692665,0.160564,-0.346221,-10.404414,225.175651,12.484092,-10.377041,1.000000,1.000000,
237138963,225.555328,14.301770,3,0.798462,-0.170227,0.049805,0.575317,0.098663,-0.025639,-0.661707,0.136085,-0.134625,-10.438291,225.348270,12.421863,-10.421879,1.000000,1.000000,
237148447,225.756348,14.301770,3,0.801392,-0.171936,0.049316,0.570740,-0.168765,0.236105,-0.458387,-0.228169,-0.241261,-10.229624,225.506538,12.379906,-10.281138,1.000000,1.000000,
237158202,225.956817,14.301770,3,0.804321,-0.173706,0.048767,0.566162,-0.077793,-0.231878,-0.635492,0.266857,-0.358612,-10.315522,225.671900,12.339610,-10.306309,1.000000,1.000000,
237169352,226.145721,14.292683,3,0.807251,-0.175476,0.048218,0.561462,-0.023470,0.154193,-0.604549,-0.075142,-0.182389,-10.390140,225.856339,12.287107,-10.367677,1.000000,1.000000,
237178799,226.145721,14.292683,3,0.810181,-0.177246,0.047668,0.556702,0.014882,0.195708,-0.388724,-0.123783,-0.059352,-10.211408,226.000993,12.229792,-10.253280,1.000000,1.000000,
237189664,225.956817,14.301770,3,0.813110,-0.178955,0.047119,0.551941,-0.108062,-0.401600,-0.793770,0.420912,-0.505832,-10.412531,226.128818,12.110777,-10.369860,1.000000,1.000000,
237198923,226.251465,14.297227,3,0.815979,-0.180725,0.046509,0.547119,0.028604,0.103716,-0.656976,-0.001813,-0.170350,-10.445821,226.252805,12.030621,-10.425467,1.000000,1.000000,
237208637,226.358307,14.301770,3,0.818787,-0.182495,0.045959,0.542358,-0.091239,-0.060863,-0.386196,0.062946,-0.243265,-10.120506,226.379769,11.946448,-10.202220,1.000000,1.000000,
237219485,226.665619,14.306314,3,0.821594,-0.184265,0.045410,0.537598,-0.109687,-0.213418,-0.791762,0.242331,-0.453077,-10.455695,226.537389,11.871313,-10.387777,1.000000,1.000000,
237228831,226.358307,14.301770,3,0.824280,-0.185974,0.044861,0.532898,0.007978,0.076519,-0.429113,-0.009871,-0.124890,-10.213708,226.629949,11.751780,-10.260350,1.000000,1.000000,
237238617,226.866089,14.306314,3,0.826904,-0.187744,0.044312,0.528198,0.048782,0.135180,-0.469998,-0.037340,-0.078780,-10.281696,226.768096,11.682752,-10.275976,1.000000,1.000000,
237249814,226.760315,14.301770,3,0.829529,-0.189514,0.043762,0.523499,-0.018011,-0.311625,-0.639216,0.347638,-0.370584,-10.301399,226.897482,11.566378,-10.294587,1.000000,1.000000,
237259298,226.559296,14.301770,3,0.832153,-0.191284,0.043213,0.518738,-0.025768,-0.023238,-0.527251,0.076361,-0.223592,-10.276832,226.972795,11.423253,-10.281589,1.000000,1.000000,
237268995,227.468658,14.306314,3,0.834778,-0.193054,0.042603,0.513855,0.052051,-0.132447,-0.492651,0.202712,-0.192449,-10.236578,227.132756,11.390533,-10.248639,1.000000,1.000000,
237280035,226.760315,14.301770,3,0.837341,-0.194763,0.041992,0.509094,-0.097767,-0.310730,-0.615579,0.306961,-0.439368,-10.247805,227.220543,11.227589,-10.248028,1.000000,1.000000,
237289433,227.456543,14.297227,3,0.839783,-0.196533,0.041382,0.504456,0.016905,0.294117,-0.447067,-0.185429,-0.036639,-10.298169,227.349274,11.162662,-10.284734,1.000000,1.000000,
237299170,227.362335,14.301770,3,0.842163,-0.198303,0.040833,0.499817,-0.072551,-0.110238,-0.357983,0.104622,-0.248694,-10.077436,227.458802,11.066290,-10.132981,1.000000,1.000000,
237310206,227.174469,14.310858,3,0.844543,-0.200134,0.040222,0.495117,-0.052490,-0.104773,-0.773678,0.160911,-0.386747,-10.458258,227.551777,10.912969,-10.371101,1.000000,1.000000,
237319656,227.764404,14.301770,3,0.846863,-0.201904,0.039612,0.490417,0.084120,0.106076,-0.383133,0.005022,-0.029674,-10.205258,227.675781,10.845294,-10.249696,1.000000,1.000000,
237329307,227.858093,14.297227,3,0.849121,-0.203735,0.038940,0.485779,-0.101002,-0.102422,-0.583659,0.106232,-0.358944,-10.276147,227.798229,10.770575,-10.269059,1.000000,1.000000,
237340479,227.267608,14.306314,3,0.851379,-0.205505,0.038330,0.481079,-0.078135,-0.192261,-0.635070,0.196784,-0.399068,-10.294393,227.864717,10.584668,-10.287605,1.000000,1.000000,
237349744,227.670196,14.306314,3,0.853577,-0.207336,0.037659,0.476440,-0.012577,0.175733,-0.427097,-0.093000,-0.104037,-10.238218,227.942837,10.463544,-10.251451,1.000000,1.000000,
237360659,227.563385,14.301770,3,0.855713,-0.209106,0.036987,0.471863,-0.006515,-0.082624,-0.509045,0.134977,-0.250961,-10.235483,228.018380,10.300971,-10.239762,1.000000,1.000000,
237369888,228.568054,14.301770,3,0.857788,-0.210938,0.036377,0.467285,-0.024143,-0.211420,-0.529259,0.231017,-0.332332,-10.201357,228.168142,10.281113,-10.211648,1.000000,1.000000,
237379621,228.969665,14.301770,3,0.859863,-0.212769,0.035706,0.462646,-0.012644,0.294373,-0.445628,-0.183964,-0.048760,-10.299872,228.347974,10.288231,-10.276232,1.000000,1.000000,
237390470,228.272278,14.306314,3,0.861938,-0.214600,0.035034,0.458069,-0.089443,-0.268853,-0.388415,0.212706,-0.362432,-10.032452,228.451424,10.169202,-10.097773,1.000000,1.000000,
237399942,227.670196,14.306314,3,0.863892,-0.216370,0.034363,0.453552,-0.055661,-0.291897,-0.676686,0.288564,-0.464769,-10.297447,228.468975,9.966410,-10.243944,1.000000,1.000000,
237409651,228.460693,14.297227,3,0.865784,-0.218201,0.033691,0.449097,0.033227,0.217691,-0.162252,-0.126252,0.061166,-10.032731,228.564443,9.867896,-10.089326,1.000000,1.000000,
237420725,228.379120,14.310858,3,0.867676,-0.219971,0.033020,0.444641,-0.088141,-0.308681,-0.408638,0.249212,-0.391878,-10.036255,228.654536,9.732004,-10.050475,1.000000,1.000000,
237430086,229.572327,14.301770,3,0.869507,-0.221802,0.032410,0.440186,0.055461,-0.083771,-0.571323,0.175689,-0.244733,-10.300746,228.837185,9.759252,-10.233686,1.000000,1.000000,
237439953,228.674377,14.306314,3,0.871277,-0.223572,0.031738,0.435730,0.011814,0.139156,-0.112638,-0.080118,0.029829,-9.951081,228.916703,9.639256,-10.026805,1.000000,1.000000,
237450805,228.969665,14.301770,3,0.873108,-0.225403,0.031067,0.431213,-0.059224,-0.212029,-0.616440,0.211895,-0.423956,-10.261015,229.026004,9.535049,-10.198258,1.000000,1.000000,
237460279,228.071747,14.306314,3,0.874878,-0.227173,0.030334,0.426697,0.020822,-0.270216,-0.433292,0.280884,-0.312917,-10.091432,229.020229,9.310873,-10.120056,1.000000,1.000000,
237469996,228.580170,14.310858,3,0.876587,-0.229004,0.029602,0.422180,-0.171200,0.019162,-0.371613,-0.073459,-0.277085,-10.100927,229.066167,9.153777,-10.106052,1.000000,1.000000,
237481121,229.371246,14.301770,3,0.878296,-0.230774,0.028931,0.417725,-0.006039,-0.359521,-0.472404,0.331319,-0.411679,-10.078928,229.197958,9.082381,-10.086196,1.000000,1.000000,
237490399,229.584442,14.310858,3,0.880005,-0.232605,0.028198,0.413208,-0.035221,0.295179,-0.385269,-0.184946,-0.029819,-10.243550,229.320528,9.039457,-10.201387,1.000000,1.000000,
237500272,229.879211,14.306314,3,0.881653,-0.234436,0.027466,0.408630,-0.043070,0.039887,-0.180117,-0.032462,-0.089916,-9.966098,229.465239,9.015862,-10.029143,1.000000,1.000000,
237511056,229.075989,14.306314,3,0.883301,-0.236206,0.026672,0.404053,-0.077640,-0.360422,-0.617066,0.295081,-0.527285,-10.184134,229.522861,8.854028,-10.142605,1.000000,1.000000,
237520685,229.867096,14.297227,3,0.884888,-0.238037,0.025879,0.399536,0.008922,0.276105,-0.278979,-0.149480,0.032629,-10.159934,229.642156,8.802567,-10.155290,1.000000,1.000000,
237530487,230.175049,14.301770,3,0.886475,-0.239868,0.025085,0.395020,-0.109142,-0.268682,-0.387456,0.172902,-0.405553,-10.005945,229.781338,8.775955,-10.045962,1.000000,1.000000,
237541651,230.175049,14.301770,3,0.888000,-0.241699,0.024231,0.390503,-0.006258,-0.112337,-0.509362,0.148185,-0.297795,-10.197820,229.918154,8.714838,-10.157130,1.000000,1.000000,
237551033,229.785522,14.310858,3,0.889465,-0.243530,0.023376,0.385986,-0.049716,0.199518,-0.069526,-0.164258,0.050829,-9.935890,229.986180,8.603762,-9.995171,1.000000,1.000000,
237561957,230.175049,14.301770,3,0.890930,-0.245361,0.022522,0.381531,-0.101980,-0.210947,-0.545222,0.152131,-0.449050,-10.162808,230.098509,8.518157,-10.117890,1.000000,1.000000,
237571232,230.175049,14.301770,3,0.892273,-0.247192,0.021729,0.377136,-0.010955,-0.289240,-0.382564,0.242630,-0.358705,-10.004656,230.184769,8.435766,-10.034997,1.000000,1.000000,
237580970,230.469818,14.297227,3,0.893616,-0.249023,0.020874,0.372803,0.011182,0.236065,-0.319002,-0.108050,-0.003147,-10.185714,230.294986,8.374845,-10.145329,1.000000,1.000000,
237591783,229.879211,14.306314,3,0.894897,-0.250854,0.020081,0.368530,-0.114590,-0.247710,-0.278344,0.124476,-0.359064,-9.908261,230.343292,8.211997,-9.971783,1.000000,1.000000,
237601276,230.683014,14.306314,3,0.896118,-0.252747,0.019226,0.364258,-0.026697,-0.359139,-0.451645,0.285701,-0.448295,-10.028091,230.454858,8.162593,-10.013003,1.000000,1.000000,
237610925,230.683014,14.306314,3,0.897339,-0.254578,0.018372,0.360046,0.007620,0.315933,-0.258756,-0.164184,0.079296,-10.165183,230.555987,8.095085,-10.124407,1.000000,1.000000,
237622074,230.576691,14.301770,3,0.898499,-0.256470,0.017578,0.355896,-0.031014,-0.358187,-0.362545,0.260694,-0.421844,-9.948478,230.647701,7.986864,-9.995618,1.000000,1.000000,
237631524,230.481933,14.306314,3,0.899597,-0.258301,0.016724,0.351746,-0.043671,-0.231057,-0.528511,0.191168,-0.426626,-10.145746,230.706093,7.868554,-10.105520,1.000000,1.000000,
237641279,230.683014,14.306314,3,0.900635,-0.260193,0.015930,0.347717,0.013699,0.198053,-0.161504,-0.091010,0.047860,-10.031722,230.780064,7.767599,-10.051496,1.000000,1.000000,
237652386,230.387695,14.310858,3,0.901672,-0.262024,0.015076,0.343689,-0.131411,-0.248173,-0.336785,0.105235,-0.398936,-9.948696,230.826384,7.604579,-9.976241,1.000000,1.000000,
237661602,230.978363,14.301770,3,0.902649,-0.263977,0.014282,0.339600,0.003950,0.020179,-0.133227,0.014383,-0.052707,-9.922265,230.911291,7.533699,-9.936728,1.000000,1.000000,
237671455,230.871490,14.297227,3,0.903625,-0.265808,0.013489,0.335571,-0.081852,0.079635,-0.197575,-0.088166,-0.098199,-9.988092,230.981049,7.429958,-9.974329,1.000000,1.000000,
237682554,230.883606,14.306314,3,0.904541,-0.267700,0.012634,0.331543,-0.009363,-0.418101,-0.393838,0.306684,-0.469376,-9.931692,231.053133,7.306680,-9.943117,1.000000,1.000000,
237692018,231.380035,14.301770,3,0.905457,-0.269653,0.011780,0.327576,-0.037247,-0.080022,-0.280385,0.061582,-0.211246,-9.991905,231.154630,7.256273,-9.978832,1.000000,1.000000,
237701699,231.581146,14.301770,3,0.906372,-0.271545,0.010986,0.323547,-0.101997,0.020591,-0.177450,-0.068846,-0.140318,-9.935889,231.267142,7.217345,-9.947396,1.000000,1.000000,
237712630,231.191559,14.310858,3,0.907166,-0.273438,0.010132,0.319580,-0.132560,-0.336889,-0.298136,0.134887,-0.443011,-9.860875,231.337871,7.099417,-9.884059,1.000000,1.000000,
237721857,231.675384,14.297227,3,0.908020,-0.275391,0.009277,0.315552,0.022230,0.097319,-0.320961,0.015138,-0.087191,-10.121427,231.436775,7.051482,-10.057824,1.000000,1.000000,
237731455,231.285278,14.306314,3,0.908813,-0.277344,0.008423,0.311584,-0.030292,0.120324,-0.051531,-0.088938,0.034338,-9.897018,231.488843,6.936223,-9.940106,1.000000,1.000000,
237742538,231.392151,14.310858,3,0.909546,-0.279236,0.007629,0.307678,-0.122590,-0.437940,-0.487293,0.225739,-0.605576,-9.966515,231.555419,6.812892,-9.959439,1.000000,1.000000,
237752076,232.089203,14.306314,3,0.910278,-0.281189,0.006775,0.303772,0.015325,-0.021869,-0.361349,0.075976,-0.193210,-10.097247,231.673442,6.788431,-10.060322,1.000000,1.000000,
237761892,231.982849,14.301770,3,0.910950,-0.283142,0.005920,0.299866,-0.064844,-0.107767,-0.111443,0.024717,-0.165551,-9.827909,231.770594,6.733408,-9.890184,1.000000,1.000000,
237772716,231.782257,14.301770,3,0.911621,-0.285095,0.005066,0.296082,-0.123446,-0.338897,-0.486236,0.158623,-0.552475,-10.009840,231.844055,6.626653,-9.977778,1.000000,1.000000,
237782215,232.183960,14.301770,3,0.912170,-0.287109,0.004211,0.292297,0.011710,0.040325,-0.093895,0.002020,-0.013709,-9.898482,231.940631,6.578445,-9.919729,1.000000,1.000000,
237793307,231.982849,14.301770,3,0.912781,-0.289062,0.003357,0.288574,-0.064997,0.020778,-0.129869,-0.047518,-0.092249,-9.903996,232.017225,6.474240,-9.908212,1.000000,1.000000,
237802562,231.888092,14.306314,3,0.913330,-0.291077,0.002563,0.284790,-0.051435,-0.496254,-0.323465,0.265557,-0.529088,-9.799238,232.063773,6.366117,-9.828437,1.000000,1.000000,
237812283,232.397217,14.310858,3,0.913757,-0.293091,0.001709,0.281250,-0.019638,-0.059962,-0.241533,0.048735,-0.184896,-9.966728,232.158582,6.313964,-9.929673,1.000000,1.000000,
237823374,232.077087,14.297227,3,0.914185,-0.295105,0.000916,0.277771,-0.043654,-0.058839,-0.151474,0.015949,-0.145169,-9.881559,232.219833,6.193452,-9.894451,1.000000,1.000000,
237832839,232.183960,14.301770,3,0.914612,-0.297119,0.000183,0.274292,-0.013167,-0.476576,-0.305372,0.279722,-0.497356,-9.787698,232.274421,6.096000,-9.816303,1.000000,1.000000,
237842436,232.478821,14.297227,3,0.914917,-0.299194,-0.000610,0.270874,0.038158,-0.020646,-0.224189,0.073077,-0.122864,-9.982096,232.352933,6.027632,-9.937671,1.000000,1.000000,
237853623,232.277679,14.297227,3,0.915222,-0.301208,-0.001343,0.267517,0.025995,0.001805,0.023523,0.013109,0.025144,-9.783233,232.412212,5.908065,-9.824615,1.000000,1.000000,
237862855,232.987976,14.301770,3,0.915527,-0.303284,-0.002136,0.264221,0.009842,-0.250111,-0.412801,0.197049,-0.398130,-9.999372,232.524070,5.893502,-9.952546,1.000000,1.000000,
237872595,231.782257,14.301770,3,0.915771,-0.305420,-0.002869,0.260986,0.049978,0.060002,-0.075802,0.024401,0.025010,-9.903654,232.506722,5.697648,-9.916755,1.000000,1.000000,
237883563,233.081695,14.297227,3,0.915955,-0.307556,-0.003601,0.257629,-0.033703,-0.268626,-0.321993,0.143542,-0.385053,-9.906277,232.626244,5.665810,-9.909084,1.000000,1.000000,
237893056,233.294952,14.306314,3,0.916199,-0.309753,-0.004395,0.254272,-0.031271,-0.328475,-0.362227,0.182728,-0.448119,-9.898605,232.746635,5.662019,-9.901413,1.000000,1.000000,
237902773,233.094330,14.306314,3,0.916321,-0.311890,-0.005188,0.250977,0.031580,0.020345,-0.095066,0.031536,-0.022463,-9.891879,232.836006,5.612506,-9.894433,1.000000,1.000000,
237913705,233.000091,14.310858,3,0.916504,-0.314087,-0.005981,0.247681,-0.077623,-0.188204,-0.240029,0.051399,-0.307539,-9.874265,232.913217,5.526480,-9.879669,1.000000,1.000000,
237923051,232.302429,14.315402,3,0.916626,-0.316345,-0.006775,0.244446,0.042814,-0.338006,-0.267171,0.231657,-0.371791,-9.820819,232.903213,5.352367,-9.836588,1.000000,1.000000,
237932924,233.189117,14.301770,3,0.916687,-0.318604,-0.007568,0.241150,-0.003055,0.078950,-0.201413,-0.003325,-0.064996,-10.007085,232.984189,5.291839,-9.961401,1.000000,1.000000,
237943752,233.401855,14.310858,3,0.916748,-0.320862,-0.008423,0.237854,-0.021816,-0.306618,-0.155075,0.136576,-0.313712,-9.734689,233.082780,5.242189,-9.795436,1.000000,1.000000,
237953271,232.987976,14.301770,3,0.916748,-0.323120,-0.009277,0.234558,-0.009192,-0.437910,-0.394049,0.235379,-0.535731,-9.847003,233.122729,5.135670,-9.833186,1.000000,1.000000,
237962971,233.189117,14.301770,3,0.916748,-0.325439,-0.010193,0.231262,0.043708,0.120696,0.043632,-0.019061,0.124698,-9.839453,233.178729,5.049120,-9.837774,1.000000,1.000000,
237974065,233.483978,14.297227,3,0.916748,-0.327820,-0.011047,0.228088,-0.060616,-0.375605,-0.153897,0.119462,-0.375363,-9.683703,233.264745,4.982392,-9.724986,1.000000,1.000000,
237983407,233.389740,14.301770,3,0.916687,-0.330200,-0.011963,0.224854,0.047938,-0.210624,-0.394497,0.197239,-0.363696,-9.982501,233.323378,4.905909,-9.913500,1.000000,1.000000,
237993288,233.000091,14.310858,3,0.916565,-0.332581,-0.012878,0.221619,0.025653,0.041422,0.023946,0.000111,0.050770,-9.810082,233.339003,4.765669,-9.837793,1.000000,1.000000,
238004132,233.389740,14.301770,3,0.916443,-0.335022,-0.013794,0.218323,-0.108629,-0.328107,-0.388090,0.090816,-0.506022,-9.888161,233.395185,4.665242,-9.874665,1.000000,1.000000,
238013711,233.294952,14.306314,3,0.916321,-0.337463,-0.014832,0.215088,0.012991,-0.416773,-0.246777,0.209364,-0.431672,-9.726011,233.429382,4.558602,-9.765843,1.000000,1.000000,
238024675,233.294952,14.306314,3,0.916138,-0.339905,-0.015808,0.211853,-0.007629,0.109614,-0.111996,-0.036181,0.000405,-9.953320,233.465271,4.431498,-9.903085,1.000000,1.000000,
238034103,233.590881,14.301770,3,0.915955,-0.342407,-0.016785,0.208618,0.000452,-0.327126,-0.205746,0.152102,-0.358899,-9.748062,233.519229,4.356641,-9.789600,1.000000,1.000000,
238043694,233.992676,14.301770,3,0.915710,-0.344910,-0.017822,0.205383,0.081614,-0.269018,-0.268350,0.211950,-0.321632,-9.837359,233.607995,4.325905,-9.824562,1.000000,1.000000,
238054755,234.193817,14.301770,3,0.915466,-0.347473,-0.018921,0.202087,0.048126,-0.058215,-0.017671,0.062245,-0.036664,-9.783168,233.713984,4.296032,-9.794259,1.000000,1.000000,
238064150,233.294952,14.306314,3,0.915161,-0.350037,-0.019958,0.198853,-0.006418,-0.537376,-0.434706,0.251471,-0.640208,-9.779696,233.711882,4.147547,-9.783598,1.000000,1.000000,
238073935,233.590881,14.301770,3,0.914856,-0.352600,-0.021057,0.195618,0.052856,0.059368,-0.135202,0.048597,-0.027298,-9.939553,233.739864,4.034060,-9.897765,1.000000,1.000000,
238085038,233.106445,14.315402,3,0.914490,-0.355164,-0.022217,0.192383,-0.023136,-0.375525,-0.116215,0.124920,-0.337475,-9.638712,233.720549,3.842201,-9.708125,1.000000,1.000000,
238094310,233.792023,14.301770,3,0.914124,-0.357849,-0.023438,0.189087,0.014620,-0.359904,-0.493163,0.213603,-0.556587,-9.929905,233.762909,3.759706,-9.870479,1.000000,1.000000,
238103967,233.602997,14.310858,3,0.913757,-0.360474,-0.024597,0.185791,0.080262,0.061668,0.110379,0.031327,0.144841,-9.768702,233.782750,3.643933,-9.795973,1.000000,1.000000,
238114962,234.086914,14.297227,3,0.913330,-0.363220,-0.025879,0.182373,-0.009705,-0.378484,-0.393415,0.177094,-0.518344,-9.829408,233.852703,3.576494,-9.820449,1.000000,1.000000,
238124493,234.193817,14.301770,3,0.912903,-0.365906,-0.027222,0.178955,0.061108,-0.397180,-0.229164,0.214884,-0.398161,-9.700229,233.920560,3.530073,-9.732442,1.000000,1.000000,
238134249,233.697265,14.306314,3,0.912415,-0.368591,-0.028625,0.175476,0.031067,0.079771,-0.094432,0.016870,-0.000088,-9.924014,233.932156,3.403311,-9.872682,1.000000,1.000000,
238145089,234.086914,14.297227,3,0.911926,-0.371338,-0.030029,0.171997,0.010112,-0.416138,-0.187377,0.159812,-0.399229,-9.650851,233.983999,3.319325,-9.710290,1.000000,1.000000,
238154561,234.287567,14.297227,3,0.911377,-0.374084,-0.031372,0.168579,0.064328,-0.437432,-0.288987,0.231715,-0.463416,-9.712742,234.045438,3.268240,-9.712085,1.000000,1.000000,
238164305,234.488739,14.297227,3,0.910828,-0.376831,-0.032776,0.165222,0.048847,0.080022,-0.055791,0.031128,0.024302,-9.899031,234.121195,3.231168,-9.848939,1.000000,1.000000,
238175468,233.779388,14.292683,3,0.910217,-0.379639,-0.034180,0.161865,-0.008080,-0.566666,-0.395423,0.213394,-0.645940,-9.679294,234.122403,3.077392,-9.724750,1.000000,1.000000,
238184896,233.885773,14.297227,3,0.909607,-0.382446,-0.035583,0.158508,0.065068,-0.190459,-0.345745,0.172013,-0.342884,-9.914674,234.127233,2.951883,-9.863784,1.000000,1.000000,
238194626,234.394470,14.301770,3,0.908936,-0.385254,-0.037048,0.155151,0.081222,0.061457,0.090579,0.041299,0.132801,-9.784632,234.182263,2.892534,-9.805841,1.000000,1.000000,
238205449,233.602997,14.310858,3,0.908203,-0.388062,-0.038513,0.151794,-0.005972,-0.478161,-0.453872,0.189374,-0.633308,-9.770934,234.154936,2.709295,-9.780287,1.000000,1.000000,
238214841,234.607757,14.310858,3,0.907532,-0.390869,-0.040100,0.148315,0.086907,-0.097963,-0.000212,0.102377,-0.035315,-9.730888,234.225348,2.678954,-9.744125,1.000000,1.000000,
238224636,233.897888,14.306314,3,0.906799,-0.393738,-0.041687,0.144836,0.001225,-0.107732,-0.055401,0.029516,-0.109848,-9.764232,234.218334,2.539479,-9.758844,1.000000,1.000000,
238235830,234.004791,14.310858,3,0.906006,-0.396606,-0.043335,0.141235,0.018453,-0.605800,-0.327985,0.207015,-0.621479,-9.578780,234.224760,2.403661,-9.627028,1.000000,1.000000,
238245298,234.099029,14.306314,3,0.905273,-0.399475,-0.045044,0.137573,0.056605,-0.208365,-0.167756,0.122459,-0.237290,-9.760695,234.234463,2.294211,-9.724879,1.000000,1.000000,
238256202,234.500854,14.306314,3,0.904419,-0.402344,-0.046753,0.134033,0.009700,-0.534673,-0.158945,0.141720,-0.455758,-9.504433,234.285651,2.226272,-9.563501,1.000000,1.000000,
238265474,234.488739,14.297227,3,0.903564,-0.405212,-0.048523,0.130371,0.015765,-0.516238,-0.287434,0.167143,-0.536669,-9.609913,234.326255,2.164636,-9.597477,1.000000,1.000000,
238275058,234.004791,14.310858,3,0.902710,-0.408081,-0.050354,0.126648,0.051004,-0.058849,-0.077071,0.072975,-0.079590,-9.813474,234.314347,2.027448,-9.755598,1.000000,1.000000,
238285896,234.702026,14.306314,3,0.901794,-0.410950,-0.052246,0.122864,0.053809,-0.494427,-0.061921,0.147079,-0.347197,-9.470527,234.374620,1.976493,-9.546912,1.000000,1.000000,
238295213,234.500854,14.306314,3,0.900879,-0.413818,-0.054199,0.119019,0.049084,-0.398700,-0.386605,0.182323,-0.521219,-9.742643,234.405255,1.902657,-9.690197,1.000000,1.000000,
238305028,234.595642,14.301770,3,0.899963,-0.416748,-0.056152,0.115173,0.085606,-0.058134,0.020011,0.096381,0.006903,-9.741400,234.442512,1.832492,-9.727680,1.000000,1.000000,
238315949,234.299682,14.306314,3,0.898987,-0.419617,-0.058167,0.111328,-0.032524,-0.516022,-0.304836,0.115485,-0.551839,-9.597793,234.447648,1.708580,-9.632596,1.000000,1.000000,
238325429,234.796814,14.301770,3,0.897949,-0.422485,-0.060303,0.107422,0.028150,-0.477341,-0.346891,0.166203,-0.548764,-9.649338,234.498404,1.664101,-9.644852,1.000000,1.000000,
238335226,234.702026,14.306314,3,0.896912,-0.425354,-0.062439,0.103455,-0.029901,-0.146669,-0.014784,-0.000549,-0.111904,-9.694379,234.534625,1.596375,-9.681108,1.000000,1.000000,
238346043,234.702026,14.306314,3,0.895874,-0.428223,-0.064636,0.099426,0.002970,-0.396878,-0.246086,0.101306,-0.428515,-9.637747,234.568101,1.514466,-9.649366,1.000000,1.000000,
238355557,234.595642,14.301770,3,0.894775,-0.431091,-0.066833,0.095276,0.060491,-0.436586,-0.209787,0.156780,-0.407170,-9.588929,234.584838,1.426961,-9.605123,1.000000,1.000000,
238365424,234.287567,14.297227,3,0.893616,-0.433960,-0.069092,0.091187,0.014124,-0.128260,-0.115492,0.054202,-0.160264,-9.762043,234.568675,1.290850,-9.719996,1.000000,1.000000,
238376563,235.198639,14.301770,3,0.892456,-0.436890,-0.071411,0.087036,0.037330,-0.534507,-0.120784,0.114936,-0.409286,-9.445570,234.645630,1.269743,-9.519102,1.000000,1.000000,
238386013,234.902649,14.306314,3,0.891235,-0.439758,-0.073730,0.082886,0.047831,-0.586248,-0.329213,0.165468,-0.593141,-9.525458,234.682986,1.214455,-9.523755,1.000000,1.000000,
238395645,234.500854,14.306314,3,0.890015,-0.442627,-0.076172,0.078613,0.011074,-0.107817,-0.055880,0.035266,-0.098251,-9.743447,234.675981,1.096148,-9.684581,1.000000,1.000000,
