Code compiled on Mar 18 2026 at 17:44:41
﻿Simulation Mode (T/F),F
Airbrakes Enabled (T/F),T
Log File Name,RF
Sim File Name (if applicable),Sim
Burnout Mass (kg),0.61
Air Density (kg/m^3),1.208
Rocket CD,0.525
Airbrake CD,0.725
Rocket Area (m^2),0.00243
Kalman Model Y STD,1
Kalman Model V STD,0.4
Kalman Model A STD,5
Kalman Measurement Y STD,5
Kalman Measurement A STD,2
Target Apogee (m),228.6
Launch Acceleration Threshold (m/s^2),40
Coast Lockout (s),1.75
KP (1/s),0.24
Altimeter Lockout (s),90
Control Max Velocity (dep/s),5

Calibration point: 245.028573
Time (us),Altitude AGL (m),Temperature (deg C),Mode,IMU Quat W,IMU Quat X,IMU Quat Y,IMU Quat Z,IMU Raw Local Acceleration X,IMU Raw Local Acceleration Y,IMU Raw Local Acceleration Z,IMU Global Acceleration x,IMU Global Acceleration y,IMU Global Acceleration z,State Estimation y,State Estimation v,State Estimation a,Commanded servo deployment,Real servo deployment,
196592996,0.591987,18.121941,1,0.843262,0.014526,0.010986,0.537231,-0.083997,-0.256356,9.892909,0.525329,-0.315275,0.071022,0.312277,0.055717,0.056044,0.000000,0.000000,
196602324,-0.190560,18.131023,2,0.843262,0.014526,0.010986,0.537231,-2.865765,-2.345659,58.894427,2.915072,-4.341053,48.972306,0.222752,0.443697,32.138695,0.000000,0.000000,
196613778,-0.680642,18.135564,2,0.843262,0.014526,0.010986,0.537231,-3.524536,-9.164410,105.838845,10.415232,-8.413938,95.639960,0.067593,1.385530,73.787193,0.000000,0.000000,
196622877,0.195564,18.121941,2,0.843262,0.014587,0.010986,0.537231,1.331333,-6.972503,109.464041,10.611944,-3.143227,99.327123,0.109440,2.317709,90.538038,0.000000,0.000000,
196633548,-0.190560,18.131023,2,0.843933,0.015137,0.010620,0.536133,-1.384773,-7.558495,109.761214,9.993533,-6.022919,99.612701,0.084076,3.342212,96.489826,0.000000,0.000000,
196642785,0.299552,18.126482,2,0.846863,0.014526,0.010803,0.531555,-0.766244,-6.362667,81.244384,8.127592,-4.525833,71.157434,0.157181,4.016189,79.875100,0.000000,0.000000,
196652556,0.790214,18.121941,2,0.850159,0.014038,0.010742,0.526245,-4.123915,-8.664857,113.109944,9.642570,-8.976109,102.942924,0.320792,5.096209,95.004570,0.000000,0.000000,
196663299,0.591987,18.121941,2,0.854248,0.013123,0.010681,0.519592,-1.705417,-8.269717,107.879114,9.984375,-6.537885,97.742713,0.432114,6.177809,96.800434,0.000000,0.000000,
196672745,0.581184,18.112859,2,0.859436,0.012024,0.010315,0.510986,3.255104,-12.271411,110.170419,15.629972,-4.115400,99.909709,0.523020,7.140826,98.839711,0.000000,0.000000,
196682549,-0.002648,18.121941,2,0.864258,0.012451,0.009949,0.502808,-1.300813,-9.576898,112.640961,11.014804,-7.160333,102.483225,0.499561,8.081503,101.229376,0.000000,0.000000,
196693622,0.299552,18.126482,2,0.868835,0.012634,0.009949,0.494873,0.112839,-7.806195,111.036559,10.071314,-5.232555,100.925365,0.557693,9.174810,101.029984,0.000000,0.000000,
196702897,0.487480,18.117400,2,0.874756,0.012573,0.010254,0.484314,-0.404426,-8.474269,112.250245,10.338286,-6.197059,102.117876,0.634054,10.113689,101.743498,0.000000,0.000000,
196712766,0.382957,18.112859,2,0.881714,0.012268,0.010620,0.471497,-0.075836,-8.436040,112.163349,10.367630,-6.048989,102.032688,0.691736,11.089727,101.933168,0.000000,0.000000,
196723743,0.977622,18.112859,2,0.888916,0.011719,0.011047,0.457825,4.466422,-14.104693,110.137248,17.407485,-5.735979,99.798872,0.873068,12.221248,100.533351,0.000000,0.000000,
196733195,0.685691,18.117400,2,0.896729,0.010986,0.011597,0.442383,4.734188,-6.552808,105.189096,11.279195,-1.226970,95.081824,0.957380,13.094368,96.957863,0.000000,0.000000,
196742899,1.384895,18.121941,2,0.905090,0.010010,0.012268,0.424866,4.156463,-5.026041,105.483742,9.748202,-0.821571,95.425863,1.169121,14.073302,95.953074,0.000000,0.000000,
196753989,1.175849,18.112859,2,0.911255,0.009766,0.013184,0.411438,-6.972636,-2.102443,108.223514,0.431250,-7.377084,98.411383,1.332610,15.164366,97.565402,0.000000,0.000000,
196763442,1.968284,18.112859,2,0.912781,0.010620,0.012939,0.408020,-7.479928,-1.972207,108.918412,-0.008788,-7.852822,99.104888,1.599883,16.181808,98.575106,0.000000,0.000000,
196774294,2.073326,18.117400,2,0.910034,0.011414,0.013245,0.414124,1.256734,-1.474909,108.142435,5.562286,-1.083155,98.205185,1.870207,17.306440,98.332488,0.000000,0.000000,
196783575,2.657783,18.108318,2,0.906982,0.012512,0.013184,0.420715,-8.204145,-1.843838,108.555214,-0.153394,-8.714082,98.724595,2.183062,18.322070,98.589662,0.000000,0.000000,
196793303,2.365806,18.112859,2,0.906860,0.011902,0.013733,0.421021,2.180659,-9.457307,109.933045,12.457559,-5.539105,99.708242,2.400369,19.314642,99.323305,0.000000,0.000000,
196804047,2.365806,18.112859,2,0.906555,0.010864,0.014465,0.421692,4.538801,-6.071111,108.376134,11.391148,-1.255267,98.227883,2.607020,20.366141,98.604852,0.000000,0.000000,
196813540,2.272102,18.117400,2,0.906799,0.009949,0.013123,0.421265,-3.183900,-6.840764,111.685347,6.761188,-7.622563,101.669654,2.742180,21.290429,100.614958,0.000000,0.000000,
196823232,3.357124,18.112859,2,0.904419,0.009644,0.011780,0.426392,-1.977755,-8.622436,110.438911,8.639071,-7.828744,100.372398,3.068645,22.339040,100.455873,0.000000,0.000000,
196834247,3.941139,18.103777,2,0.899170,0.011169,0.011597,0.437378,0.490705,-7.744382,110.140905,9.754909,-5.491263,100.039448,3.484593,23.548045,100.182757,0.000000,0.000000,
196843744,4.243980,18.108318,2,0.893372,0.012146,0.011658,0.449036,-1.947503,-8.235113,110.180112,8.931286,-7.714962,100.066733,3.855367,24.593146,100.106664,0.000000,0.000000,
196853645,3.951957,18.112859,2,0.886292,0.012817,0.011414,0.462769,-0.462213,-8.346072,108.977018,10.070832,-6.470718,98.833352,4.121786,25.583625,99.271539,0.000000,0.000000,
196864533,4.453590,18.117400,2,0.878174,0.013123,0.011108,0.478088,-1.047996,-7.239455,108.254998,8.973922,-6.159888,98.148812,4.468429,26.693444,98.535179,0.000000,0.000000,
196873856,6.133811,18.112859,2,0.869873,0.013062,0.010620,0.492981,-1.572853,-7.658800,107.983473,9.137077,-6.607427,97.871496,5.034298,27.813489,98.099897,0.000000,0.000000,
196883677,6.029243,18.108318,2,0.861511,0.012756,0.009766,0.507507,-0.038852,-7.782645,107.478605,9.978588,-5.107720,97.370131,5.498855,28.891958,97.621270,0.000000,0.000000,
196894743,6.425376,18.108318,2,0.853088,0.012146,0.008789,0.521545,-0.815258,-7.153668,105.914632,8.918667,-5.210448,95.850775,5.998359,30.066716,96.460061,0.000000,0.000000,
196904210,7.522178,18.112859,2,0.844604,0.011230,0.007568,0.535217,-0.597064,-7.570316,105.336514,9.192962,-4.920542,95.289943,6.573435,31.158278,95.692624,0.000000,0.000000,
196913884,7.615943,18.108318,2,0.836121,0.010010,0.006104,0.548462,-0.374037,-7.451062,104.723530,8.905946,-4.354912,94.717150,7.074922,32.202644,95.052845,0.000000,0.000000,
196924593,7.918891,18.112859,2,0.827576,0.008606,0.004517,0.561279,-0.908241,-6.739290,104.033590,7.698970,-4.285546,94.080117,7.583574,33.313414,94.414867,0.000000,0.000000,
196934112,9.214225,18.117400,2,0.819031,0.006958,0.002808,0.573669,-0.770179,-7.051713,103.683944,7.665591,-3.977073,93.765530,8.211045,34.407188,93.988994,0.000000,0.000000,
196943987,9.505882,18.112859,2,0.810547,0.005066,0.000916,0.585632,-0.545203,-6.822716,103.622083,7.074776,-3.396185,93.750324,8.798351,35.491036,93.832463,0.000000,0.000000,
196955076,10.299980,18.112859,2,0.802124,0.002991,-0.001099,0.597168,-0.612250,-6.425901,102.046822,6.161828,-3.049375,92.218913,9.479464,36.697072,92.774192,0.000000,0.000000,
196964495,11.583763,18.108318,2,0.793640,0.000732,-0.003174,0.608398,-0.601517,-6.631060,101.817997,5.833579,-2.808410,92.030027,10.224347,37.824669,92.286127,0.000000,0.000000,
196974177,12.284202,18.112859,2,0.785156,-0.001648,-0.005371,0.619263,-0.597905,-6.201798,99.894906,4.846178,-2.430151,90.141485,10.981243,38.949092,90.879532,0.000000,0.000000,
196984649,12.587303,18.117400,2,0.776733,-0.004028,-0.007568,0.629761,-0.697444,-5.811171,99.844259,3.865964,-2.206489,90.115351,11.695432,40.087833,90.378336,0.000000,0.000000,
196994342,13.474937,18.112859,2,0.768372,-0.006531,-0.009827,0.639893,-0.651892,-5.596093,98.243072,3.082337,-1.897786,88.535212,12.422051,41.163388,89.169496,0.000000,0.000000,
197004308,14.070365,18.112859,2,0.760071,-0.008972,-0.012024,0.649719,-0.532335,-5.526199,97.036188,2.476707,-1.574499,87.346519,13.145805,42.234059,87.973869,0.000000,0.000000,
197015262,14.561149,18.108318,2,0.751709,-0.011353,-0.014221,0.659180,-0.577946,-5.340215,96.470946,1.710275,-1.430375,86.788188,13.879294,43.356751,87.196224,0.000000,0.000000,
197024771,14.968955,18.117400,2,0.743530,-0.013672,-0.016357,0.668396,-0.539309,-5.086305,95.112375,0.948645,-1.213271,85.438583,14.499947,44.302873,86.043447,0.000000,0.000000,
197034406,16.045005,18.103777,2,0.735352,-0.015930,-0.018372,0.677246,-0.366290,-4.822990,94.448850,0.184897,-0.895786,84.766774,15.220575,45.307523,85.206123,0.000000,0.000000,
197045394,16.849906,18.112859,2,0.727295,-0.017944,-0.020325,0.685791,-0.434446,-4.779184,94.220173,-0.356271,-0.873694,84.533600,16.029301,46.433303,84.765043,0.000000,0.000000,
197054977,17.842613,18.112859,2,0.719360,-0.019836,-0.022095,0.694031,-0.417884,-4.327359,92.599722,-1.190874,-0.768357,82.893610,16.818420,47.449828,83.537636,0.000000,0.000000,
197065902,18.135032,18.108318,2,0.711426,-0.021484,-0.023743,0.702026,-0.340697,-4.400461,91.759266,-1.474891,-0.648126,82.051410,17.588863,48.506678,82.562872,0.000000,0.000000,
197075089,19.337760,18.117400,2,0.703552,-0.022766,-0.025269,0.709839,-0.436082,-4.218539,91.293428,-1.978369,-0.747749,81.564983,18.366235,49.471172,81.908396,0.000000,0.000000,
197084918,20.016044,18.103777,2,0.695679,-0.023804,-0.026611,0.717468,-0.497483,-3.872647,89.624023,-2.494441,-0.824170,79.865910,19.165752,50.455762,80.568800,0.000000,0.000000,
197095688,21.312370,18.108318,2,0.687927,-0.024414,-0.027832,0.724854,-0.630352,-3.891901,89.519553,-2.683365,-1.023436,79.763572,20.116581,51.573510,80.040685,0.000000,0.000000,
197105191,21.615714,18.112859,2,0.680176,-0.024658,-0.028931,0.732056,-0.524560,-3.894079,88.967639,-2.798862,-1.020757,79.206352,20.891565,52.508886,79.493478,0.000000,0.000000,
197114905,21.908775,18.108318,2,0.672546,-0.024536,-0.029907,0.739075,-0.619028,-3.556900,86.965263,-3.057674,-1.248147,77.178376,21.595961,53.381135,77.975079,0.000000,0.000000,
197125902,24.198112,18.112859,2,0.664978,-0.023987,-0.030640,0.745850,-0.597919,-3.700997,87.635522,-2.973080,-1.374063,77.854792,22.675955,54.549060,77.896197,0.000000,0.000000,
197135250,24.689903,18.108318,2,0.657410,-0.023071,-0.031189,0.752563,-0.703532,-3.729066,86.430443,-2.759469,-1.631334,76.655108,23.567107,55.510822,77.082215,0.000000,0.000000,
197145195,25.192558,18.112859,2,0.649902,-0.021790,-0.031494,0.759094,-0.693466,-3.598146,85.062894,-2.638905,-1.783507,75.283646,24.427666,56.454897,75.902596,0.000000,0.000000,
197155945,25.589439,18.112859,2,0.642456,-0.020081,-0.031677,0.765442,-0.624004,-3.748767,83.875144,-2.195213,-1.861982,74.114573,25.256748,57.391493,74.729892,0.000000,0.000000,
197165529,26.782188,18.112859,2,0.635071,-0.018005,-0.031555,0.771606,-0.939342,-3.754742,83.556134,-1.812357,-2.360145,73.786968,26.096384,58.283753,74.111465,0.000000,0.000000,
197175336,27.869285,18.108318,2,0.627808,-0.015625,-0.031250,0.777588,-0.935649,-3.688441,81.682922,-1.387455,-2.499738,71.917904,27.003852,59.202129,72.672784,0.000000,0.000000,
197186245,28.570335,18.112859,2,0.620667,-0.013000,-0.030701,0.783386,-1.052520,-3.995517,80.815797,-0.603694,-2.693912,71.072386,27.947774,60.165474,71.623139,0.000000,0.000000,
197195608,29.073142,18.117400,2,0.613586,-0.010010,-0.030029,0.789001,-1.138906,-4.063391,79.839817,0.012768,-2.902179,70.099086,28.725272,60.958036,70.623565,0.000000,0.000000,
197205485,30.850822,18.108318,2,0.606689,-0.006775,-0.029114,0.794373,-1.310044,-4.214649,79.137490,0.762251,-3.166671,69.396195,29.729286,61.898033,69.818580,0.000000,0.000000,
197216256,31.447257,18.108318,2,0.599915,-0.003357,-0.028015,0.799561,-1.360680,-4.444153,77.967993,1.610976,-3.237154,68.217426,30.722171,62.838406,68.768440,0.000000,0.000000,
197225880,32.441856,18.108318,2,0.593201,0.000183,-0.026733,0.804565,-1.518673,-4.385714,77.179196,2.218945,-3.487627,67.404492,31.652649,63.694852,67.873877,0.000000,0.000000,
197235619,33.038352,18.108318,2,0.586670,0.003784,-0.025391,0.809387,-1.745735,-4.778134,76.989295,3.268675,-3.676465,67.197795,32.535989,64.515292,67.430462,0.000000,0.000000,
197246707,33.540885,18.112859,2,0.580322,0.007385,-0.023926,0.813965,-1.757951,-4.762614,75.159876,3.898318,-3.680478,65.338301,33.443803,65.360381,66.058283,0.000000,0.000000,
197256215,35.319846,18.103777,2,0.574158,0.010864,-0.022461,0.818359,-1.867094,-4.674003,74.190877,4.441071,-3.809655,64.328967,34.420147,66.199196,64.924087,0.000000,0.000000,
197265967,35.833366,18.117400,2,0.568115,0.014160,-0.021057,0.822571,-1.918847,-4.962708,74.687539,5.274437,-3.822863,64.790363,35.333838,67.000422,64.836387,0.000000,0.000000,
197276761,36.419212,18.108318,2,0.562195,0.017212,-0.019653,0.826599,-1.953931,-4.977029,73.244314,5.818532,-3.776357,63.307962,36.264278,67.813584,63.833945,0.000000,0.000000,
197286298,37.706748,18.103777,2,0.556396,0.019897,-0.018311,0.830444,-2.086188,-4.896318,71.922463,6.231860,-3.841267,61.942202,37.184373,68.577958,62.593216,0.000000,0.000000,
197297074,39.005302,18.108318,2,0.550781,0.022217,-0.017029,0.834167,-1.977080,-5.034682,71.254052,6.715061,-3.596281,61.246919,38.268521,69.455719,61.710229,0.000000,0.000000,
197306329,39.005302,18.108318,2,0.545227,0.024170,-0.015808,0.837769,-2.135315,-4.908702,70.115596,6.980715,-3.660603,60.069990,39.052050,70.100071,60.634451,0.000000,0.000000,
197316016,40.409446,18.117400,2,0.539917,0.025574,-0.014771,0.841187,-2.169182,-4.963804,68.813363,7.267557,-3.507481,58.755061,39.988230,70.830519,59.401823,0.000000,0.000000,
197327079,41.498466,18.112859,2,0.534790,0.026489,-0.013733,0.844482,-1.950698,-5.066333,68.425339,7.458111,-3.121795,58.364288,41.058587,71.654993,58.721342,0.000000,0.000000,
197336583,42.388084,18.108318,2,0.529785,0.026917,-0.012878,0.847595,-1.832478,-4.575610,66.937694,7.049125,-3.011191,56.881909,41.991481,72.355050,57.514921,0.000000,0.000000,
197346450,43.781852,18.108318,2,0.524963,0.026855,-0.012146,0.850586,-1.827333,-4.596392,66.713262,7.117681,-2.828492,56.659090,43.043810,73.127068,56.953616,0.000000,0.000000,
197357097,44.073966,18.103777,2,0.520325,0.026367,-0.011597,0.853516,-1.514606,-4.647269,65.601917,6.975377,-2.306565,55.565403,44.018686,73.841154,56.043135,0.000000,0.000000,
197366570,45.573417,18.108318,2,0.515747,0.025391,-0.011169,0.856262,-1.494778,-4.066334,63.705264,6.314819,-2.300820,53.691784,45.012061,74.535431,54.500964,0.000000,0.000000,
197376302,45.678398,18.112859,2,0.511230,0.024048,-0.010925,0.859070,-1.599097,-4.113137,63.789410,6.291294,-2.206342,53.789144,45.864848,75.137788,54.034106,0.000000,0.000000,
197386899,46.872947,18.112859,2,0.506653,0.022400,-0.010742,0.861816,-1.235561,-3.999738,62.280244,5.818248,-1.695488,52.323649,46.852940,75.811478,52.912275,0.000000,0.000000,
197396682,48.653678,18.103777,2,0.501953,0.020569,-0.010742,0.864563,-1.041390,-3.317490,60.510078,4.893651,-1.628536,50.589405,47.934576,76.520480,51.388785,0.000000,0.000000,
197406622,49.648918,18.103777,2,0.497314,0.018494,-0.010803,0.867310,-0.742726,-3.142583,59.734018,4.364537,-1.269742,49.849488,49.018963,77.218999,50.379215,0.000000,0.000000,
197417437,50.446098,18.103777,2,0.492554,0.016357,-0.010986,0.870056,-0.538929,-3.029124,58.502545,3.903510,-0.960346,48.647625,50.124513,77.914339,49.243525,0.000000,0.000000,
197426930,51.242851,18.103777,2,0.487610,0.014099,-0.011230,0.872864,-0.381390,-2.777577,57.643646,3.354298,-0.779930,47.802872,51.075998,78.501732,48.298650,0.000000,0.000000,
197436861,52.344413,18.108318,2,0.482605,0.012024,-0.011475,0.875671,-0.414361,-2.715523,56.921424,3.085394,-0.698780,47.094490,52.095658,79.119655,47.508885,0.000000,0.000000,
197447955,53.035728,18.103777,2,0.477417,0.010132,-0.011719,0.878540,-0.288337,-2.555845,55.441563,2.671661,-0.522300,45.629989,53.152480,79.737708,46.276579,0.000000,0.000000,
197457437,53.832115,18.103777,2,0.472046,0.008545,-0.011902,0.881470,-0.220417,-2.497130,55.130905,2.412951,-0.390993,45.329771,54.038058,80.248981,45.655601,0.000000,0.000000,
197467011,55.625968,18.103777,2,0.466431,0.007385,-0.012085,0.884460,-0.322682,-2.440883,53.250337,2.288784,-0.384915,43.452790,55.105945,80.853344,44.210853,0.000000,0.000000,
197479726,56.328880,18.108318,2,0.460571,0.006592,-0.012146,0.887512,-0.156999,-2.198988,51.910463,1.908268,-0.284469,42.117712,56.366898,81.534894,42.838032,0.000000,0.000000,
197488591,57.407157,18.094694,2,0.454529,0.006165,-0.012207,0.890625,-0.081722,-2.342700,51.577228,1.941907,-0.092632,41.790552,57.286713,82.032797,42.151028,0.000000,0.000000,
197497727,58.216331,18.103777,2,0.448181,0.006104,-0.012146,0.893860,-0.182580,-2.447649,50.476774,2.077118,-0.046169,40.690503,58.212136,82.515600,41.193119,0.000000,0.000000,
197512320,59.811057,18.103777,2,0.441467,0.006470,-0.012085,0.897156,-0.364965,-2.217216,48.445325,2.037064,-0.269230,38.650564,59.720830,83.272052,39.525542,0.000000,0.000000,
197520656,60.022331,18.112859,2,0.434387,0.007263,-0.012024,0.900635,-0.608102,-2.400080,46.901391,2.400856,-0.302283,37.101247,60.472864,83.616021,37.935524,0.000000,0.000000,
197529515,61.406547,18.103777,2,0.427002,0.008423,-0.011963,0.904175,-0.595060,-2.136003,44.618381,2.273611,-0.397255,34.810427,61.390109,84.037023,35.885875,0.000000,0.000000,
197539241,62.109855,18.108318,2,0.419250,0.009949,-0.011963,0.907776,-0.988848,-1.885861,42.323156,2.449056,-0.807102,32.494957,62.343801,84.438899,33.661880,0.000000,0.000000,
197548209,63.306846,18.108318,2,0.411194,0.011780,-0.011963,0.911377,-1.163301,-2.013373,39.800417,2.744111,-0.782072,29.960753,63.282495,84.820051,31.234430,0.000000,0.000000,
197558867,64.303489,18.108318,2,0.402954,0.013855,-0.012024,0.915039,-1.267043,-1.793617,35.222761,2.732326,-0.884693,25.367687,64.378945,85.211077,27.386620,0.000000,0.000000,
197568117,65.195579,18.103777,2,0.394592,0.015991,-0.012085,0.918640,-1.659551,-1.461421,32.399713,2.846822,-1.321223,22.525314,65.320844,85.513481,24.198244,0.000000,0.000000,
197577863,65.899162,18.108318,2,0.386230,0.018066,-0.012146,0.922180,-1.634832,-1.596243,30.238203,3.003949,-1.135552,20.354306,66.263326,85.778829,21.677127,0.000000,0.000000,
197588665,66.603294,18.112859,2,0.377808,0.020142,-0.012146,0.925598,-1.739627,-0.890778,22.464802,2.493584,-1.421973,12.565003,67.253946,85.957252,15.700770,0.000000,0.000000,
197598144,67.295036,18.108318,2,0.369507,0.022095,-0.012024,0.928894,-1.766005,-0.389364,16.388051,2.075894,-1.549130,6.479591,68.076299,86.020567,9.652886,0.000000,0.000000,
197607797,68.094108,18.108318,2,0.361267,0.023743,-0.011963,0.932068,-1.219763,-0.344077,10.920383,1.514671,-0.991314,1.038788,68.909677,86.032268,4.003168,0.000000,0.000000,
197618857,69.290244,18.108318,2,0.352966,0.025085,-0.011841,0.935242,-1.947205,0.060171,6.730187,1.680304,-1.593855,-3.193043,69.932005,86.044279,-0.716601,0.000000,0.000000,
197628214,69.889366,18.108318,2,0.344666,0.026123,-0.011719,0.938293,-1.920768,0.172594,4.390789,1.528185,-1.535014,-5.532247,70.728660,85.985463,-3.875034,0.000000,0.000000,
197638079,70.089439,18.108318,2,0.336548,0.026794,-0.011475,0.941223,-1.640490,0.304169,2.507870,1.184097,-1.369217,-7.389533,71.456669,85.838299,-6.180087,0.000000,0.000000,
197648822,71.392082,18.112859,2,0.328491,0.027100,-0.011108,0.944031,-1.765046,0.220657,0.934173,1.283832,-1.300279,-8.967962,72.366092,85.735339,-8.008567,0.000000,0.000000,
197658358,72.084129,18.108318,2,0.320618,0.027100,-0.010620,0.946777,-0.984173,0.427753,0.226620,0.526824,-0.933712,-9.638154,73.130306,85.609702,-9.077364,0.000000,0.000000,
197667905,72.484367,18.108318,2,0.312744,0.026733,-0.010132,0.949402,-0.687459,0.118529,-1.619851,0.404385,-0.435285,-11.462206,73.826013,85.424698,-10.641510,0.000000,0.000000,
197678928,73.282279,18.108318,2,0.304871,0.025879,-0.009399,0.952026,-0.740705,0.637170,-2.212673,0.128498,-0.867774,-12.055764,74.664975,85.229586,-11.569077,0.000000,0.000000,
197688447,73.681510,18.108318,2,0.296997,0.024658,-0.008423,0.954529,0.051358,0.318502,-2.080419,-0.308606,-0.165626,-11.878656,75.291382,85.000294,-11.772124,0.000000,0.000000,
197698322,74.186027,18.112859,2,0.289062,0.022888,-0.007141,0.957031,0.918257,0.337887,-2.950605,-1.065531,0.309184,-12.704616,75.923007,84.745796,-12.383721,0.000000,0.000000,
197709060,74.891776,18.117400,2,0.281128,0.020630,-0.005615,0.959412,1.040510,0.409219,-3.705487,-1.242715,0.297443,-13.455862,76.638906,84.481551,-13.086909,0.000000,0.000000,
197718681,75.783744,18.112859,2,0.273193,0.018005,-0.003967,0.961792,0.563266,0.284675,-3.599278,-0.746640,0.115522,-13.372110,77.290766,84.251871,-13.273967,0.000000,0.000000,
197728374,76.476096,18.108318,2,0.265137,0.015198,-0.002258,0.964111,1.213383,0.492673,-4.658753,-1.436179,0.253832,-14.422047,77.954059,84.016742,-14.026961,0.000000,0.000000,
197739369,76.875450,18.108318,2,0.256775,0.012634,-0.000916,0.966370,1.459553,0.203992,-4.579541,-1.484017,0.581599,-14.343799,78.674773,83.733852,-14.234770,0.000000,0.000000,
197748807,77.274314,18.108318,2,0.248108,0.010376,0.000244,0.968689,1.084218,0.075165,-4.759610,-1.090516,0.475845,-14.538464,79.201846,83.430759,-14.433960,0.000000,0.000000,
197758657,78.086082,18.117400,2,0.239014,0.008545,0.001099,0.970947,1.384452,0.328077,-5.424234,-1.478118,0.365272,-15.200472,79.813814,83.150752,-14.936696,0.000000,0.000000,
197769686,78.473075,18.108318,2,0.229675,0.007141,0.001587,0.973267,1.262833,0.234682,-5.227815,-1.320203,0.357558,-15.010041,80.478628,82.829213,-14.984806,0.000000,0.000000,
197779018,79.484153,18.117400,2,0.220093,0.006226,0.001770,0.975464,1.237429,0.124434,-5.513133,-1.243727,0.415019,-15.298636,81.064461,82.568399,-15.190642,0.000000,0.000000,
197788695,80.270652,18.108318,2,0.210205,0.005859,0.001587,0.977661,1.192477,0.530095,-6.037698,-1.385291,0.001211,-15.822071,81.713995,82.322643,-15.604780,0.000000,0.000000,
197799701,80.670158,18.108318,2,0.200012,0.005981,0.001160,0.979797,0.706380,0.460820,-5.650894,-0.901877,-0.151574,-15.441070,82.423473,82.031632,-15.497412,0.000000,0.000000,
197809217,81.175529,18.112859,2,0.189575,0.006592,0.000488,0.981873,0.661002,0.498682,-6.066191,-0.884925,-0.209200,-15.856281,82.969403,81.733205,-15.732788,0.000000,0.000000,
197819050,81.469230,18.108318,2,0.178833,0.007568,-0.000427,0.983826,0.283591,0.979569,-6.228187,-0.711796,-0.800071,-16.022375,83.491217,81.400571,-15.922725,0.000000,0.000000,
197829734,82.561546,18.103777,2,0.167786,0.008972,-0.001587,0.985779,0.175525,0.666172,-5.728599,-0.492019,-0.531488,-15.525999,84.185792,81.126507,-15.662529,0.000000,0.000000,
197839301,82.468131,18.108318,2,0.156372,0.010620,-0.002930,0.987610,-0.377792,1.002720,-6.318194,-0.080443,-1.007286,-16.129672,84.639222,80.769930,-15.968921,0.000000,0.000000,
197850228,82.573997,18.112859,2,0.144653,0.012512,-0.004395,0.989380,-0.785784,1.173639,-5.982085,0.273860,-1.264734,-15.809655,85.133687,80.356638,-15.864472,0.000000,0.000000,
197859533,83.760398,18.103777,2,0.132690,0.014526,-0.005920,0.991028,-0.681987,1.100045,-6.016879,0.198856,-1.137622,-15.847827,85.623267,80.046661,-15.853562,0.000000,0.000000,
197869172,84.665580,18.108318,2,0.120605,0.016541,-0.007446,0.992554,-0.740943,1.172388,-6.366030,0.232570,-1.188003,-16.206211,86.214673,79.778962,-16.084857,0.000000,0.000000,
197880210,85.265098,18.108318,2,0.108398,0.018494,-0.009033,0.993896,-1.274664,1.430908,-5.907487,0.721724,-1.533013,-15.769639,86.916374,79.495023,-15.878119,0.000000,0.000000,
197889715,86.157951,18.103777,2,0.096130,0.020203,-0.010498,0.995117,-0.825096,1.175228,-5.961951,0.353718,-1.155782,-15.810485,87.529097,79.255394,-15.833764,0.000000,0.000000,
197899519,86.065025,18.108318,2,0.083740,0.021729,-0.011841,0.996155,-0.912904,1.583597,-6.240338,0.373539,-1.536561,-16.107342,88.031044,78.927039,-16.013201,0.000000,0.000000,
197910312,86.864005,18.108318,2,0.071411,0.023071,-0.013062,0.997070,-1.030866,1.402841,-5.810620,0.553211,-1.359238,-15.686983,88.663288,78.622369,-15.799249,0.000000,0.000000,
197919768,87.370201,18.112859,2,0.059082,0.024048,-0.014099,0.997864,-1.015076,1.504882,-6.124079,0.538733,-1.414267,-16.007729,89.163663,78.318893,-15.935990,0.000000,0.000000,
197929573,88.169761,18.112859,2,0.046753,0.024780,-0.014954,0.998474,-1.026318,1.659604,-6.225255,0.556985,-1.535349,-16.118454,89.744623,78.045486,-16.055666,0.000000,0.000000,
197940636,88.968894,18.112859,2,0.034424,0.025208,-0.015564,0.998962,-0.856806,1.270615,-5.674513,0.482201,-1.131016,-15.542698,90.461725,77.783632,-15.719230,0.000000,0.000000,
197950148,89.662132,18.108318,2,0.022095,0.025391,-0.015930,0.999329,-0.652055,1.316515,-5.966558,0.288846,-1.145181,-15.827192,91.050986,77.538767,-15.790042,0.000000,0.000000,
197959869,89.262809,18.108318,2,0.009949,0.025085,-0.015808,0.999512,-0.687997,1.280392,-5.962995,0.359099,-1.096439,-15.823909,91.468981,77.176721,-15.812262,0.000000,0.000000,
197970830,90.062522,18.108318,2,-0.002136,0.024597,-0.015503,0.999573,-0.609712,0.955822,-5.514504,0.339192,-0.776993,-15.371194,92.050413,76.845319,-15.522985,0.000000,0.000000,
197980133,90.474876,18.117400,2,-0.014160,0.023926,-0.015015,0.999512,-0.337224,0.943265,-6.107447,0.063220,-0.752737,-15.948028,92.469293,76.511256,-15.801765,0.000000,0.000000,
197990013,90.968803,18.112859,2,-0.026062,0.023254,-0.014404,0.999268,-0.322798,0.962446,-5.883185,0.085101,-0.777696,-15.722181,92.943400,76.182076,-15.749575,0.000000,0.000000,
198001026,91.755149,18.103777,2,-0.037903,0.022461,-0.013611,0.998962,-0.529668,0.487022,-5.673300,0.303784,-0.297183,-15.506208,93.558768,75.873894,-15.589963,0.000000,0.000000,
198010395,92.261070,18.108318,2,-0.049683,0.021606,-0.012817,0.998474,-0.223070,0.723972,-6.031974,0.024661,-0.554674,-15.856087,94.025684,75.572459,-15.764511,0.000000,0.000000,
198020087,92.861534,18.108318,2,-0.061523,0.020813,-0.012024,0.997803,-0.173561,0.655655,-5.722331,0.003491,-0.506443,-15.541296,94.539361,75.286845,-15.618116,0.000000,0.000000,
198031194,93.155570,18.103777,2,-0.073303,0.019897,-0.011230,0.997070,-0.068198,0.296297,-5.585911,-0.124071,-0.166703,-15.390098,95.115316,74.956348,-15.468572,0.000000,0.000000,
198040605,93.955070,18.103777,2,-0.085022,0.019043,-0.010498,0.996155,0.031618,0.422398,-5.804375,-0.195667,-0.313133,-15.606896,95.602558,74.672925,-15.559300,0.000000,0.000000,
198050439,94.261588,18.108318,2,-0.096802,0.018250,-0.009888,0.995117,-0.086175,0.243255,-5.394453,-0.083349,-0.129045,-15.196442,96.084975,74.367970,-15.321318,0.000000,0.000000,
198061180,94.861686,18.108318,2,-0.108521,0.017456,-0.009399,0.993896,0.250105,0.365469,-5.803010,-0.378563,-0.324211,-15.596192,96.653623,74.059225,-15.501604,0.000000,0.000000,
198070683,96.048942,18.099236,2,-0.120239,0.016724,-0.008972,0.992554,-0.075592,0.187023,-5.783121,-0.091448,-0.080964,-15.582229,97.243384,73.840325,-15.554487,0.000000,0.000000,
198081506,96.154960,18.103777,2,-0.131958,0.016113,-0.008728,0.991089,0.053445,-0.061124,-5.253311,-0.248373,0.114685,-15.053420,97.837709,73.551294,-15.225857,0.000000,0.000000,
198090954,96.368003,18.112859,2,-0.143738,0.015625,-0.008667,0.989441,0.175169,0.183618,-5.639266,-0.313135,-0.154826,-15.440623,98.256464,73.232808,-15.366722,0.000000,0.000000,
198100560,97.368888,18.112859,2,-0.155457,0.015198,-0.008728,0.987671,0.262096,0.148042,-5.411565,-0.390083,-0.150921,-15.210028,98.793009,72.983909,-15.263955,0.000000,0.000000,
198111643,98.049186,18.099236,2,-0.167175,0.014954,-0.009033,0.985779,0.192074,0.139132,-5.232808,-0.315664,-0.127335,-15.033356,99.461606,72.731720,-15.112715,0.000000,0.000000,
198121006,98.368797,18.112859,2,-0.178894,0.014771,-0.009521,0.983704,0.175997,0.404908,-5.618386,-0.208064,-0.360724,-15.426010,99.937102,72.458993,-15.318200,0.000000,0.000000,
198130886,98.462364,18.108318,2,-0.190552,0.014709,-0.010193,0.981506,0.000310,0.371275,-5.386789,-0.043133,-0.267548,-15.198966,100.376046,72.138431,-15.240004,0.000000,0.000000,
198141633,99.156242,18.103777,2,-0.202209,0.014832,-0.010986,0.979187,0.060450,0.310219,-5.176212,-0.106821,-0.229279,-14.976396,100.921913,71.836831,-15.067117,0.000000,0.000000,
198151164,99.675529,18.117400,2,-0.213867,0.015015,-0.011963,0.976685,-0.200647,0.609863,-5.609974,0.236212,-0.376299,-15.425856,101.372319,71.544086,-15.302408,0.000000,0.000000,
198160969,100.570152,18.112859,2,-0.225464,0.015259,-0.013000,0.974060,0.106829,0.484640,-5.338896,-0.079098,-0.380412,-15.145270,101.922851,71.302920,-15.199349,0.000000,0.000000,
198173015,101.170066,18.112859,2,-0.237122,0.015564,-0.014099,0.971252,0.184777,0.475014,-5.299980,-0.141621,-0.422643,-15.106532,102.639525,71.034266,-15.138476,0.000000,0.000000,
198181904,102.264488,18.108318,2,-0.248718,0.015930,-0.015198,0.968323,-0.126320,0.999298,-5.584570,0.366827,-0.692815,-15.418509,103.199979,70.852198,-15.322143,0.000000,0.000000,
198191430,102.170371,18.112859,2,-0.260376,0.016296,-0.016357,0.965210,-0.085250,0.909699,-5.243535,0.315259,-0.621948,-15.076578,103.681366,70.588926,-15.161089,0.000000,0.000000,
198203129,102.664848,18.108318,2,-0.271973,0.016663,-0.017517,0.961975,-0.128771,0.975918,-5.297525,0.401066,-0.656241,-15.138073,104.315592,70.294902,-15.145997,0.000000,0.000000,
198211965,104.053214,18.099236,2,-0.283569,0.017029,-0.018616,0.958618,-0.119264,1.105346,-5.347767,0.461254,-0.722436,-15.195849,104.886929,70.129471,-15.178695,0.000000,0.000000,
198221486,103.465598,18.108318,2,-0.295105,0.017334,-0.019653,0.955078,-0.299530,1.230786,-5.040878,0.709271,-0.702211,-14.902241,105.287809,69.823481,-14.997383,0.000000,0.000000,
198232440,104.265922,18.108318,2,-0.306702,0.017639,-0.020569,0.951416,-0.197476,1.360762,-5.426804,0.698478,-0.837798,-15.295247,105.860310,69.539213,-15.192747,0.000000,0.000000,
198241874,104.466636,18.108318,2,-0.318359,0.017883,-0.021362,0.947571,-0.261519,1.269172,-5.192106,0.714228,-0.700293,-15.059779,106.254569,69.234798,-15.105544,0.000000,0.000000,
198252646,105.066795,18.108318,2,-0.329956,0.018127,-0.021973,0.943542,-0.237350,0.940871,-4.998040,0.522137,-0.438530,-14.850514,106.776972,68.938115,-14.938282,0.000000,0.000000,
198262120,105.373649,18.112859,2,-0.341614,0.018250,-0.022339,0.939392,-0.077946,1.301355,-5.295918,0.623970,-0.791231,-15.165416,107.166455,68.630661,-15.087259,0.000000,0.000000,
198271741,107.056815,18.099236,2,-0.353271,0.018372,-0.022583,0.935059,-0.261167,1.387957,-5.221661,0.847581,-0.713747,-15.100783,107.805521,68.472744,-15.096129,0.000000,0.000000,
198282477,106.774864,18.112859,2,-0.364929,0.018433,-0.022705,0.930542,-0.321959,0.991748,-4.824035,0.656560,-0.366829,-14.673111,108.346780,68.197188,-14.818689,0.000000,0.000000,
198291973,107.175407,18.112859,2,-0.376648,0.018433,-0.022583,0.925903,-0.102392,1.112927,-5.220873,0.572053,-0.580027,-15.071948,108.774272,67.918068,-14.984798,0.000000,0.000000,
198301681,107.469322,18.108318,2,-0.388245,0.018372,-0.022339,0.921082,-0.261137,0.972122,-4.882319,0.623038,-0.358606,-14.738516,109.188628,67.625241,-14.823275,0.000000,0.000000,
198312826,108.070670,18.108318,2,-0.399841,0.018250,-0.021973,0.916138,-0.374852,0.982217,-5.127144,0.702434,-0.259420,-14.984082,109.731955,67.330680,-14.928748,0.000000,0.000000,
198322268,108.871848,18.108318,2,-0.411438,0.018066,-0.021484,0.911011,-0.020134,0.826249,-5.237593,0.353645,-0.404226,-15.079063,110.205844,67.087831,-15.027339,0.000000,0.000000,
198331977,109.979576,18.112859,2,-0.422974,0.017883,-0.020874,0.905701,-0.119181,0.787984,-4.908498,0.424076,-0.300127,-14.748822,110.814145,66.918581,-14.844669,0.000000,0.000000,
198342787,109.472801,18.108318,2,-0.434387,0.017639,-0.020203,0.900330,-0.278872,0.477150,-4.860491,0.295464,0.020950,-14.685746,111.285420,66.606151,-14.740442,0.000000,0.000000,
198352235,110.674766,18.108318,2,-0.445618,0.017395,-0.019531,0.894836,-0.146653,0.675474,-5.046151,0.375171,-0.192290,-14.878457,111.799644,66.394509,-14.830964,0.000000,0.000000,
198361939,110.981254,18.112859,3,-0.456726,0.017090,-0.018799,0.889221,-0.317147,0.684553,-4.749383,0.508084,-0.063308,-14.583507,112.290033,66.158998,-14.668668,0.000000,0.000000,
198372934,111.675987,18.108318,3,-0.467712,0.016785,-0.018127,0.883545,-0.428182,0.534927,-4.941632,0.443006,0.134982,-14.768105,112.901534,65.926523,-14.733888,0.055000,0.055000,
198382453,112.476920,18.108318,3,-0.478516,0.016479,-0.017517,0.877747,-0.178425,0.591807,-5.058353,0.352248,-0.099180,-14.883152,113.448849,65.735350,-14.831787,0.105000,0.085000,
198392273,111.983024,18.112859,3,-0.489197,0.016113,-0.016968,0.871826,-0.396482,0.415179,-4.460328,0.355786,0.183975,-14.279328,113.819200,65.426391,-14.469452,0.150000,0.112000,
198403070,113.491844,18.117400,3,-0.499756,0.015808,-0.016479,0.865906,-0.126947,0.409385,-4.896514,0.195563,-0.036136,-14.710890,114.463415,65.230098,-14.627805,0.205000,0.145000,
198412534,113.278953,18.108318,3,-0.510132,0.015503,-0.016113,0.859802,-0.251806,0.372401,-4.793209,0.234729,0.102643,-14.606711,114.858185,64.954013,-14.613976,0.255000,0.175000,
198423547,114.080039,18.108318,3,-0.520447,0.015137,-0.015808,0.853577,-0.497430,0.330664,-4.392753,0.326708,0.342530,-14.206338,115.426861,64.707948,-14.346622,0.305000,0.205000,
198432782,114.987876,18.112859,3,-0.530701,0.014771,-0.015686,0.847290,-0.272634,0.431869,-5.023921,0.293137,0.111566,-14.838699,115.941519,64.519305,-14.669362,0.355000,0.235000,
198442632,115.683372,18.108318,3,-0.540955,0.014404,-0.015625,0.840759,-0.328299,0.556894,-4.600966,0.452226,0.115860,-14.421354,116.528003,64.347560,-14.506702,0.405000,0.265000,
198453644,115.683372,18.108318,3,-0.551331,0.014038,-0.015686,0.834045,-0.395704,0.209207,-4.669272,0.149843,0.335216,-14.474617,117.077471,64.091347,-14.485662,0.460000,0.298000,
198463087,115.990562,18.112859,3,-0.561584,0.013611,-0.015808,0.827148,0.076004,0.571002,-5.060551,0.290335,-0.230155,-14.877692,117.478323,63.823790,-14.742787,0.505000,0.325000,
198472703,116.979270,18.103777,3,-0.571716,0.013184,-0.016052,0.820190,-0.346761,0.320767,-4.659658,0.228282,0.266940,-14.468265,117.997943,63.627200,-14.562739,0.555000,0.355000,
198483645,117.486930,18.108318,3,-0.581848,0.012756,-0.016418,0.813049,0.144529,0.432753,-4.981291,0.155527,-0.220748,-14.792894,118.597533,63.407040,-14.713693,0.605000,0.385000,
198492976,118.288871,18.108318,3,-0.591736,0.012329,-0.016785,0.805847,0.040942,0.809042,-5.325571,0.539688,-0.212318,-15.152806,119.130679,63.229564,-15.001695,0.655000,0.415000,
198502837,118.195640,18.112859,3,-0.601440,0.011902,-0.017212,0.798645,0.036393,0.552279,-4.910935,0.317782,-0.113672,-14.727952,119.578412,62.977165,-14.822159,0.705000,0.445000,
198513806,118.689842,18.108318,3,-0.611084,0.011536,-0.017639,0.791260,0.467293,0.394114,-5.543350,0.041102,-0.472266,-15.355153,120.101806,62.707372,-15.171737,0.760000,0.478000,
198523318,119.090843,18.108318,3,-0.620667,0.011230,-0.018066,0.783813,-0.826607,0.912508,-5.713970,0.846012,0.685796,-15.542038,120.508132,62.441706,-15.414610,0.805000,0.505000,
198533045,120.186607,18.103777,3,-0.630127,0.010986,-0.018433,0.776184,-0.338324,0.614616,-5.529605,0.441933,0.288401,-15.347283,121.054570,62.255438,-15.370454,0.860000,0.538000,
198544188,120.106407,18.117400,3,-0.639465,0.010803,-0.018738,0.768494,0.115694,0.499332,-5.998843,0.219063,-0.110969,-15.814190,121.569636,61.970982,-15.661490,0.910000,0.568000,
198553411,121.095512,18.108318,3,-0.648804,0.010681,-0.018982,0.760681,-0.257073,0.671412,-6.066391,0.446737,0.242671,-15.886080,122.051666,61.768962,-15.808794,0.960000,0.598000,
198563271,122.003990,18.112859,3,-0.658020,0.010559,-0.019287,0.752686,-0.337045,0.378501,-5.608262,0.188091,0.371479,-15.415308,122.651048,61.611475,-15.550719,1.000000,0.625000,
198574005,121.590385,18.103777,3,-0.667114,0.010498,-0.019531,0.744629,-0.110101,0.765962,-6.656484,0.493170,0.128591,-16.481313,123.112716,61.313505,-16.161071,1.000000,0.658000,
198583548,121.403373,18.112859,3,-0.676147,0.010437,-0.019775,0.736450,-0.462152,1.339203,-6.433375,1.098125,0.445000,-16.279217,123.376862,60.959847,-16.238567,1.000000,0.688000,
198593294,122.592643,18.103777,3,-0.684998,0.010498,-0.020081,0.728210,-0.412501,0.712589,-6.293500,0.459642,0.472110,-16.112701,123.823381,60.712830,-16.156018,1.000000,0.718000,
198604278,122.619224,18.121941,3,-0.693665,0.010620,-0.020264,0.719971,0.090928,0.730788,-6.902402,0.426491,-0.012534,-16.728605,124.263652,60.391846,-16.531565,1.000000,0.748000,
198613724,123.702873,18.108318,3,-0.702332,0.010742,-0.020508,0.711487,-0.698559,1.430944,-6.722421,1.138477,0.777621,-16.569420,124.728306,60.170092,-16.556395,1.000000,0.778000,
198624676,123.796653,18.103777,3,-0.710876,0.010925,-0.020752,0.702942,-0.643756,0.818528,-6.996655,0.488519,0.757052,-16.816741,125.211694,59.879071,-16.727152,1.000000,0.808000,
198633934,123.702873,18.108318,3,-0.719116,0.011108,-0.020996,0.694519,0.136998,0.758717,-7.524707,0.416322,-0.006469,-17.353370,125.482557,59.542000,-17.137876,1.000000,0.838000,
198643699,123.902946,18.108318,3,-0.727234,0.011353,-0.021240,0.685974,-0.668413,1.292532,-7.310971,0.903049,0.835009,-17.152286,125.767396,59.193278,-17.147334,1.000000,0.868000,
198654485,123.902946,18.108318,3,-0.735107,0.011475,-0.021484,0.677490,-0.439590,1.211933,-7.858256,0.799234,0.640483,-17.699089,126.055581,58.789686,-17.509220,1.000000,0.901000,
198664068,124.798637,18.103777,3,-0.742859,0.011658,-0.021790,0.668945,-0.175215,1.111360,-8.080048,0.692178,0.390123,-17.920526,126.382650,58.472167,-17.778989,1.000000,0.928000,
198673863,125.600608,18.103777,3,-0.750305,0.011780,-0.022095,0.660583,0.671159,0.983556,-8.082481,0.655808,-0.446443,-17.932057,126.808084,58.206795,-17.879384,1.000000,0.958000,
198684910,126.002372,18.103777,3,-0.757446,0.011780,-0.022400,0.652405,-0.697634,1.292392,-8.578534,0.748894,0.981100,-18.417884,127.299004,57.911518,-18.232573,1.000000,0.991000,
198694211,125.909110,18.108318,3,-0.764221,0.011780,-0.022644,0.644409,0.014691,1.497816,-8.606642,1.045763,0.335199,-18.469034,127.576415,57.577736,-18.387667,1.000000,1.000000,
198704037,126.216575,18.112859,3,-0.770813,0.011780,-0.022827,0.636536,-1.476122,1.587198,-8.197868,0.862483,1.846513,-18.034828,127.886702,57.244672,-18.156256,1.000000,1.000000,
198714784,127.312583,18.108318,3,-0.777222,0.011719,-0.022888,0.628723,-0.597974,2.179397,-9.086433,1.545431,1.140583,-18.967220,128.393246,56.975536,-18.688144,1.000000,1.000000,
198724400,127.607597,18.103777,3,-0.783203,0.011658,-0.022888,0.621216,-0.052713,1.468298,-9.124115,0.947018,0.486275,-18.981884,128.793053,56.701942,-18.880803,1.000000,1.000000,
198734097,127.419944,18.112859,3,-0.789124,0.011597,-0.022888,0.613708,-0.214267,1.468515,-8.728451,0.923639,0.658275,-18.582985,129.084934,56.364237,-18.685479,1.000000,1.000000,
198745173,128.222648,18.112859,3,-0.795105,0.011536,-0.022766,0.605896,0.021596,2.025361,-9.368239,1.483635,0.611071,-19.252126,129.546492,56.052945,-19.057128,1.000000,1.000000,
198754550,129.024864,18.112859,3,-0.801208,0.011353,-0.022705,0.597839,-0.428096,1.332197,-8.625331,0.717726,0.869329,-18.467201,129.973584,55.819337,-18.670216,1.000000,1.000000,
198764403,129.226096,18.112859,3,-0.807251,0.011169,-0.022522,0.589661,-0.174183,1.225975,-8.767853,0.670331,0.618610,-18.609305,130.382704,55.550281,-18.630269,1.000000,1.000000,
198775171,129.920982,18.108318,3,-0.813110,0.010986,-0.022217,0.581604,-0.057007,1.532122,-9.188341,0.969751,0.628129,-19.044155,130.893260,55.292584,-18.901726,1.000000,1.000000,
198784739,130.122245,18.108318,3,-0.818848,0.010803,-0.021912,0.573486,0.325886,0.715510,-8.841201,0.346815,0.001177,-18.670221,131.277013,55.024651,-18.749893,1.000000,1.000000,
198795562,130.925132,18.108318,3,-0.824341,0.010498,-0.021606,0.565613,-0.981915,1.380720,-8.896046,0.502084,1.475776,-18.720970,131.805519,54.781668,-18.730924,1.000000,1.000000,
198804872,130.229118,18.112859,3,-0.829407,0.010315,-0.021179,0.558167,0.608433,0.536944,-9.194395,0.287530,-0.303483,-19.020902,132.019350,54.421064,-18.921119,1.000000,1.000000,
198814482,131.232749,18.112859,3,-0.834351,0.010071,-0.020752,0.550781,0.057204,1.456903,-8.623552,0.958302,0.569442,-18.473577,132.394243,54.153489,-18.627593,1.000000,1.000000,
198825521,131.527336,18.108318,3,-0.839233,0.009827,-0.020325,0.543335,-0.096484,0.930741,-8.439752,0.419645,0.521757,-18.264248,132.828584,53.853186,-18.389290,1.000000,1.000000,
198835042,131.928825,18.108318,3,-0.843933,0.009583,-0.019836,0.535950,-0.678897,1.034521,-8.409907,0.269767,1.101045,-18.223797,133.171940,53.575414,-18.280753,1.000000,1.000000,
198844835,132.637473,18.112859,3,-0.848816,0.009399,-0.019470,0.528259,0.799469,1.584990,-8.920913,1.380017,0.026408,-18.787674,133.595607,53.330160,-18.613229,1.000000,1.000000,
198855637,133.132896,18.108318,3,-0.853455,0.009216,-0.019104,0.520752,-0.225124,0.997399,-8.649738,0.407673,0.693180,-18.470677,134.083938,53.077792,-18.519735,1.000000,1.000000,
198865087,133.534446,18.108318,3,-0.857605,0.009094,-0.018738,0.513916,-0.244978,0.447291,-8.190782,-0.064020,0.459148,-17.992055,134.481812,52.844304,-18.173649,1.000000,1.000000,
198874830,134.350639,18.117400,3,-0.861511,0.008911,-0.018494,0.507263,-0.280334,0.699999,-8.515996,0.121847,0.614909,-18.324330,134.971241,52.650768,-18.272476,1.000000,1.000000,
198885868,134.444511,18.112859,3,-0.865540,0.008728,-0.018250,0.500488,-0.260205,0.437941,-8.415850,-0.097812,0.470462,-18.215328,135.452633,52.389741,-18.234997,1.000000,1.000000,
198895373,135.247245,18.112859,3,-0.869690,0.008606,-0.018066,0.493225,0.115663,1.131515,-8.145197,0.701082,0.508167,-17.976127,135.911318,52.195136,-18.065213,1.000000,1.000000,
198905178,135.836143,18.103777,3,-0.873779,0.008423,-0.018005,0.485901,-0.294236,0.846816,-8.400220,0.221558,0.724000,-18.211386,136.408133,52.007950,-18.161084,1.000000,1.000000,
198915951,135.943595,18.108318,3,-0.877991,0.008179,-0.018005,0.478271,-0.965393,1.315116,-8.350208,0.242017,1.545735,-18.159534,136.880347,51.759281,-18.160069,1.000000,1.000000,
198925386,136.050529,18.112859,3,-0.882324,0.007935,-0.018066,0.470215,-0.253177,1.379814,-7.609713,0.695902,1.008018,-17.437659,137.212511,51.498911,-17.686266,1.000000,1.000000,
198935137,137.148643,18.108318,3,-0.886475,0.007690,-0.018066,0.462341,-0.826835,1.311958,-7.860602,0.286243,1.452302,-17.670973,137.701881,51.319301,-17.676236,1.000000,1.000000,
198946153,136.853355,18.112859,3,-0.890625,0.007446,-0.018188,0.454285,0.278488,1.188992,-8.299943,0.797928,0.499588,-18.133573,138.107165,51.023214,-17.976192,1.000000,1.000000,
198955667,137.643730,18.103777,3,-0.894714,0.007202,-0.018372,0.446167,-0.526634,1.026201,-7.517068,0.196002,1.067637,-17.324521,138.505023,50.804876,-17.548783,1.000000,1.000000,
198965383,137.657310,18.112859,3,-0.898804,0.006958,-0.018616,0.437927,-1.526236,0.569187,-7.679826,-0.802473,1.586857,-17.445837,138.839101,50.538224,-17.481268,1.000000,1.000000,
198976247,138.661125,18.112859,3,-0.902710,0.006653,-0.018799,0.429749,0.620813,1.124392,-8.093430,0.933455,0.261993,-17.933625,139.353736,50.323289,-17.777956,1.000000,1.000000,
198985746,138.862541,18.112859,3,-0.906555,0.006348,-0.018982,0.421631,-0.340903,0.778264,-7.518952,0.073541,0.799898,-17.322158,139.738981,50.102024,-17.479014,1.000000,1.000000,
198996791,139.062919,18.112859,3,-0.910278,0.006042,-0.019165,0.413452,-0.308346,1.383496,-7.835250,0.521611,1.180731,-17.654592,140.164599,49.829748,-17.594173,1.000000,1.000000,
199006026,139.371299,18.117400,3,-0.914062,0.005737,-0.019409,0.405151,-0.242679,1.004608,-7.539316,0.271979,0.890960,-17.349776,140.475403,49.577172,-17.433885,1.000000,1.000000,
199015747,140.160819,18.108318,3,-0.917847,0.005432,-0.019592,0.396423,0.526933,0.250761,-7.399970,0.245264,-0.170273,-17.215026,140.897639,49.373810,-17.290344,1.000000,1.000000,
199026660,140.763053,18.108318,3,-0.921631,0.005127,-0.019836,0.387512,0.339275,0.585096,-7.739458,0.332357,0.217184,-17.556383,141.410192,49.167009,-17.464831,1.000000,1.000000,
199036186,140.871086,18.112859,3,-0.925415,0.004883,-0.020081,0.378418,-0.338597,0.996173,-7.576450,0.135685,0.994952,-17.380711,141.776778,48.939041,-17.409662,1.000000,1.000000,
199045888,141.968650,18.108318,3,-0.928955,0.004578,-0.020325,0.369568,0.099651,-0.035736,-7.143432,-0.251443,-0.043528,-16.938073,142.286731,48.796695,-17.100361,1.000000,1.000000,
199056977,141.687858,18.121941,3,-0.932373,0.004333,-0.020508,0.360840,-0.066814,1.120433,-7.590995,0.384482,0.924238,-17.405986,142.714577,48.535684,-17.300813,1.000000,1.000000,
199066311,142.477561,18.112859,3,-0.935669,0.004089,-0.020691,0.352234,-0.378113,1.104436,-6.847630,0.152939,1.121957,-16.651039,143.122511,48.353026,-16.874647,1.000000,1.000000,
199076182,142.585075,18.117400,3,-0.938843,0.003845,-0.020813,0.343689,-0.100238,1.003555,-7.315346,0.259810,0.886816,-17.125245,143.498333,48.122547,-17.039009,1.000000,1.000000,
199086954,143.282462,18.112859,3,-0.942017,0.003662,-0.020935,0.334900,-1.151932,0.901568,-7.261119,-0.633076,1.475691,-17.029469,143.975288,47.914491,-17.032753,1.000000,1.000000,
199096410,143.871299,18.103777,3,-0.945129,0.003418,-0.021057,0.326050,0.542070,0.916881,-6.905206,0.689769,0.436804,-16.736256,144.408155,47.744307,-16.838290,1.000000,1.000000,
199106102,144.165214,18.099236,3,-0.948242,0.003174,-0.021240,0.316772,0.231584,0.904793,-7.508842,0.406251,0.642233,-17.327230,144.824580,47.548613,-17.158972,1.000000,1.000000,
199117117,144.286308,18.112859,3,-0.951294,0.002930,-0.021362,0.307495,-0.551717,0.814238,-7.272950,-0.281791,1.035744,-17.059017,145.246487,47.299556,-17.093417,1.000000,1.000000,
199126522,144.982749,18.108318,3,-0.954163,0.002686,-0.021423,0.298523,0.023947,1.079690,-6.950077,0.332138,0.925097,-16.762725,145.641211,47.111503,-16.876528,1.000000,1.000000,
199136399,144.688316,18.112859,3,-0.956726,0.002502,-0.021423,0.290161,-0.102803,0.748248,-7.038478,0.020157,0.730007,-16.839421,145.927311,46.836377,-16.852195,1.000000,1.000000,
199147075,145.491813,18.112859,3,-0.959229,0.002319,-0.021484,0.281799,-0.837454,0.783920,-6.853166,-0.573502,1.163412,-16.625394,146.344837,46.609216,-16.703445,1.000000,1.000000,
199156702,145.893852,18.112859,3,-0.961731,0.002136,-0.021484,0.273254,0.099527,0.354933,-6.704135,-0.019552,0.298077,-16.506419,146.708316,46.398339,-16.574224,1.000000,1.000000,
199167503,146.791435,18.108318,3,-0.964172,0.001831,-0.021423,0.264404,-0.099213,0.446854,-6.915142,-0.157260,0.486778,-16.710148,147.224055,46.227398,-16.663372,1.000000,1.000000,
199176959,147.086479,18.103777,3,-0.966553,0.001526,-0.021423,0.255493,-0.145794,1.015445,-6.942106,0.071772,1.009082,-16.742510,147.634655,46.053103,-16.715277,1.000000,1.000000,
199186738,147.502159,18.112859,3,-0.968933,0.001282,-0.021301,0.246338,-0.322212,0.558721,-6.282084,-0.290126,0.692732,-16.069010,148.059459,45.880807,-16.291411,1.000000,1.000000,
199197698,147.796684,18.108318,3,-0.971252,0.000977,-0.021179,0.237183,-0.006835,1.138345,-7.160908,0.209583,1.069484,-16.966165,148.512044,45.665208,-16.733962,1.000000,1.000000,
199206928,147.904289,18.112859,3,-0.973389,0.000732,-0.021057,0.228088,0.152172,0.397025,-6.561008,0.030213,0.338298,-16.364018,148.819011,45.443883,-16.491330,1.000000,1.000000,
199216797,148.306419,18.112859,3,-0.975525,0.000427,-0.020874,0.218994,-0.594598,0.677025,-6.268067,-0.514073,0.914302,-16.043425,149.170778,45.227120,-16.197565,1.000000,1.000000,
199227567,148.909110,18.112859,3,-0.977478,0.000183,-0.020813,0.210083,-0.586421,0.615306,-6.469477,-0.556178,0.850971,-16.243742,149.607927,45.022446,-16.227852,1.000000,1.000000,
199237062,149.311790,18.112859,3,-0.979309,0.000061,-0.020691,0.201172,0.192758,0.816898,-6.400002,0.231976,0.727528,-16.207316,149.979221,44.834404,-16.214385,1.000000,1.000000,
199246841,149.900993,18.103777,3,-0.981140,-0.000122,-0.020569,0.192322,-0.209917,0.639860,-6.438019,-0.219724,0.721665,-16.227010,150.402236,44.666800,-16.222666,1.000000,1.000000,
199257897,149.806968,18.108318,3,-0.982849,-0.000305,-0.020386,0.183350,-0.317714,0.762610,-6.407256,-0.283395,0.872049,-16.192351,150.783593,44.420165,-16.202786,1.000000,1.000000,
199267269,150.610862,18.108318,3,-0.984436,-0.000305,-0.020325,0.174500,-0.179030,0.414383,-5.967558,-0.267952,0.494255,-15.756081,151.166871,44.252676,-15.909807,1.000000,1.000000,
199277148,151.013114,18.108318,3,-0.986023,-0.000427,-0.020203,0.165405,-0.364278,1.117974,-6.554081,-0.243556,1.218677,-16.338584,151.574441,44.073725,-16.191029,1.000000,1.000000,
199288164,151.429466,18.117400,3,-0.987549,-0.000427,-0.020142,0.156128,-0.001543,0.332299,-6.327163,-0.151917,0.358847,-16.121667,152.031825,43.879590,-16.145537,1.000000,1.000000,
199297588,151.817619,18.108318,3,-0.989014,-0.000488,-0.020020,0.146606,-0.221448,0.207895,-5.890732,-0.395197,0.298453,-15.675672,152.404540,43.707197,-15.837368,1.000000,1.000000,
199307160,151.817619,18.108318,3,-0.990417,-0.000488,-0.019958,0.136780,-0.255889,1.000867,-6.654131,-0.246515,1.073983,-16.440622,152.712247,43.482618,-16.233026,1.000000,1.000000,
199318248,152.837486,18.117400,3,-0.991699,-0.000488,-0.019897,0.126892,-0.609887,0.544841,-5.824320,-0.689377,0.717829,-15.595235,153.216905,43.323589,-15.814718,1.000000,1.000000,
199327596,153.627494,18.108318,3,-0.992859,-0.000488,-0.019897,0.117432,0.118586,0.687903,-5.935952,0.032318,0.670587,-15.735908,153.698124,43.224078,-15.763027,1.000000,1.000000,
199338571,152.930473,18.112859,3,-0.993958,-0.000488,-0.019958,0.107971,0.175520,1.267528,-6.437257,0.188290,1.231593,-16.241151,154.027698,42.958449,-16.076617,0.984375,0.984375,
199348031,153.950431,18.121941,3,-0.994934,-0.000549,-0.019958,0.098633,-0.904304,0.560785,-5.722803,-1.004293,0.748446,-15.481605,154.418943,42.803245,-15.686368,0.984375,0.984375,
199357653,154.245139,18.117400,3,-0.995728,-0.000488,-0.020020,0.089844,0.002180,0.787761,-5.854001,-0.092248,0.796046,-15.649244,154.797531,42.632761,-15.662020,0.968750,0.968750,
199368366,154.151603,18.121941,3,-0.996521,-0.000488,-0.020081,0.080933,-0.424335,0.861667,-6.325390,-0.535312,0.943718,-16.103017,155.132353,42.387006,-15.951259,0.921875,0.938750,
199377816,154.646995,18.117400,3,-0.997192,-0.000427,-0.020142,0.071838,-0.172634,0.300755,-5.771432,-0.364675,0.334701,-15.558180,155.441338,42.184196,-15.693453,0.890625,0.908750,
199387526,155.746055,18.112859,3,-0.997803,-0.000488,-0.020264,0.063110,0.042272,0.625800,-5.693690,-0.116619,0.630992,-15.489481,155.907258,42.068469,-15.559673,0.906250,0.906250,
199398522,155.746055,18.112859,3,-0.998291,-0.000488,-0.020447,0.054382,-0.534361,1.061124,-5.927452,-0.657941,1.129650,-15.700148,156.338702,41.877643,-15.651807,0.890625,0.890625,
199408059,155.732993,18.103777,3,-0.998718,-0.000549,-0.020569,0.045654,0.012407,0.623364,-5.634048,-0.165724,0.629058,-15.428439,156.623943,41.660658,-15.505310,0.859375,0.860625,
199417899,156.457908,18.117400,3,-0.999084,-0.000610,-0.020691,0.037109,-0.638360,0.220048,-5.383991,-0.847843,0.278919,-15.151191,157.002080,41.492618,-15.273055,0.843750,0.843750,
199428572,156.134910,18.103777,3,-0.999390,-0.000671,-0.020874,0.028748,-0.163248,0.810232,-5.961443,-0.373849,0.835337,-15.747474,157.281613,41.226009,-15.584216,0.793750,0.813750,
199438024,156.860374,18.117400,3,-0.999573,-0.000732,-0.020996,0.020630,-0.111996,0.538344,-5.300669,-0.313256,0.560773,-15.089543,157.591741,41.035003,-15.259777,0.750000,0.783750,
199447827,156.967521,18.121941,3,-0.999695,-0.000854,-0.021118,0.012207,-1.177107,1.084426,-5.329684,-1.378022,1.126426,-15.072488,157.876448,40.816196,-15.136943,0.703125,0.753750,
199458955,157.959648,18.112859,3,-0.999756,-0.000916,-0.021240,0.003723,-0.477193,0.209333,-5.061210,-0.696270,0.229361,-14.834597,158.345327,40.660414,-14.938643,0.703125,0.720750,
199468468,158.362174,18.112859,3,-0.999756,-0.000977,-0.021362,-0.005066,-0.068880,0.629255,-4.797762,-0.288604,0.638020,-14.587666,158.734643,40.523731,-14.708448,0.703125,0.703125,
199479282,159.261375,18.108318,3,-0.999695,-0.001099,-0.021545,-0.013733,0.499949,0.843144,-5.020952,0.257718,0.871904,-14.834472,159.270684,40.423651,-14.791101,0.734375,0.733125,
199488738,158.778831,18.121941,3,-0.999512,-0.001160,-0.021667,-0.022095,-0.805346,0.665084,-4.494479,-1.032073,0.636860,-14.252277,159.560162,40.231983,-14.437705,0.703125,0.703125,
199498340,159.167259,18.112859,3,-0.999268,-0.001221,-0.021790,-0.030457,0.178708,0.896295,-4.637058,-0.084986,0.917208,-14.436080,159.872241,40.048380,-14.436641,0.671875,0.673125,
199509265,159.569297,18.112859,3,-0.999023,-0.001343,-0.021912,-0.038879,-0.455345,0.568909,-4.619663,-0.708626,0.538669,-14.391911,160.252176,39.856730,-14.407305,0.656250,0.656250,
199518635,159.274436,18.117400,3,-0.998657,-0.001404,-0.021973,-0.047241,-0.286277,0.672304,-4.159061,-0.540648,0.652258,-13.938302,160.441909,39.613331,-14.099705,0.606250,0.626250,
199528487,160.468101,18.108318,3,-0.998230,-0.001526,-0.022095,-0.055725,-0.201618,0.356133,-4.173362,-0.425613,0.337807,-13.958012,160.836411,39.478794,-14.006773,0.578125,0.596250,
199539532,160.776603,18.112859,3,-0.997681,-0.001709,-0.022156,-0.064514,-0.385397,0.703193,-4.199420,-0.660100,0.651293,-13.973534,161.260401,39.317649,-13.984973,0.578125,0.578125,
199549035,160.885368,18.117400,3,-0.997070,-0.001892,-0.022278,-0.072998,-0.325939,0.600707,-3.719982,-0.579730,0.557131,-13.497270,161.563189,39.146130,-13.665106,0.546875,0.548125,
199558656,161.783714,18.112859,3,-0.996399,-0.002075,-0.022339,-0.081543,-0.194334,0.597248,-4.046105,-0.473954,0.565360,-13.828487,161.980454,39.038301,-13.772262,0.562500,0.562500,
199569694,161.690116,18.117400,3,-0.995667,-0.002380,-0.022461,-0.090393,0.046902,0.677642,-3.732147,-0.249513,0.682951,-13.524216,162.356166,38.855952,-13.609577,0.531250,0.531250,
199579080,161.876823,18.108318,3,-0.994812,-0.002625,-0.022583,-0.099243,-0.231492,0.329336,-3.344978,-0.449854,0.283550,-13.127893,162.630519,38.677447,-13.293658,0.500000,0.504250,
199588813,162.078666,18.108318,3,-0.993896,-0.002930,-0.022705,-0.108093,0.502957,0.344119,-3.790059,0.236263,0.451423,-13.604721,162.903000,38.482068,-13.497676,0.453125,0.474250,
199599734,163.098472,18.117400,3,-0.992920,-0.003357,-0.022827,-0.116760,0.006587,0.421348,-3.523421,-0.261864,0.421932,-13.314960,163.359084,38.358763,-13.377837,0.468750,0.468750,
199609198,163.098472,18.117400,3,-0.991821,-0.003784,-0.022949,-0.125305,-0.434876,0.411896,-3.201265,-0.680943,0.304310,-12.973122,163.672734,38.206034,-13.112398,0.437500,0.441750,
199618779,163.408103,18.121941,3,-0.990723,-0.004211,-0.023071,-0.133850,0.154739,0.537804,-3.673021,-0.172896,0.567927,-13.468507,163.988619,38.046786,-13.345960,0.421875,0.421875,
199629922,163.501731,18.117400,3,-0.989502,-0.004639,-0.023132,-0.142395,-0.393935,0.621766,-3.199713,-0.710095,0.496456,-12.969417,164.320606,37.846997,-13.098999,0.375000,0.388875,
199639243,164.306693,18.117400,3,-0.988281,-0.005066,-0.023132,-0.150940,0.072643,0.472946,-3.037255,-0.220200,0.487614,-12.829763,164.670227,37.725922,-12.922416,0.375000,0.375000,
199650237,165.406761,18.112859,3,-0.986938,-0.005493,-0.023132,-0.159485,-0.197981,0.492620,-3.241135,-0.499351,0.424432,-13.020712,165.222168,37.666689,-12.986882,0.425000,0.405000,
199659457,164.709983,18.117400,3,-0.985535,-0.005920,-0.023071,-0.167786,-0.466268,0.359967,-2.773781,-0.696078,0.194415,-12.544214,165.472995,37.491848,-12.696552,0.390625,0.390625,
199669204,165.205894,18.112859,3,-0.984070,-0.006348,-0.023071,-0.176025,0.304449,0.344138,-2.882666,0.025137,0.441776,-12.686459,165.787828,37.337769,-12.689933,0.375000,0.375000,
199679986,165.500938,18.108318,3,-0.982605,-0.006775,-0.023071,-0.184265,0.067329,0.492116,-2.793027,-0.250285,0.500101,-12.583201,166.135956,37.169538,-12.619932,0.343750,0.343750,
199689465,165.918388,18.117400,3,-0.981018,-0.007141,-0.023010,-0.192505,0.002179,0.309464,-2.629368,-0.247411,0.302624,-12.420379,166.446993,37.026829,-12.489053,0.328125,0.328125,
199699265,166.119285,18.117400,3,-0.979309,-0.007507,-0.022888,-0.200806,0.023362,0.358162,-3.007277,-0.264679,0.358939,-12.797484,166.747888,36.864140,-12.691345,0.296875,0.298125,
199710329,166.816703,18.112859,3,-0.977600,-0.007874,-0.022766,-0.209167,-0.104446,0.691709,-2.806993,-0.517398,0.607055,-12.583300,167.167875,36.732671,-12.620481,0.296875,0.296875,
199719717,167.219566,18.112859,3,-0.975769,-0.008179,-0.022644,-0.217468,-0.083146,0.370978,-2.466068,-0.358984,0.314774,-12.251205,167.521882,36.623791,-12.378284,0.312500,0.312500,
199729572,168.118492,18.108318,3,-0.973877,-0.008545,-0.022522,-0.225708,-0.153294,0.332748,-2.756691,-0.418391,0.250738,-12.539650,167.993886,36.568242,-12.484117,0.359375,0.342500,
199740357,167.528770,18.117400,3,-0.971985,-0.008850,-0.022339,-0.233765,-0.329096,0.395977,-2.405372,-0.591966,0.217785,-12.179807,168.300470,36.383909,-12.284531,0.312500,0.312500,
199749838,168.427726,18.112859,3,-0.970032,-0.009155,-0.022156,-0.241760,-0.029143,0.142782,-2.221819,-0.209189,0.132357,-12.014778,168.668734,36.284765,-12.107608,0.328125,0.328125,
199759531,168.520866,18.108318,3,-0.967957,-0.009338,-0.021973,-0.249878,-0.021726,0.391976,-2.783314,-0.343187,0.355827,-12.568915,168.992153,36.146066,-12.410166,0.312500,0.312500,
199770554,168.535545,18.117400,3,-0.965820,-0.009583,-0.021729,-0.258118,-0.115735,0.510370,-2.359215,-0.468319,0.401459,-12.138004,169.304354,35.960417,-12.231665,0.265625,0.282500,
199779943,168.844810,18.121941,3,-0.963562,-0.009766,-0.021606,-0.266357,-0.175402,0.310162,-2.459579,-0.434457,0.196532,-12.241555,169.555371,35.792384,-12.238154,0.234375,0.252500,
199790882,169.636588,18.112859,3,-0.961243,-0.010010,-0.021423,-0.274719,-0.084954,0.406115,-2.537773,-0.415216,0.317010,-12.319797,169.961377,35.666903,-12.291701,0.234375,0.234375,
199800198,170.147361,18.117400,3,-0.958801,-0.010193,-0.021240,-0.283020,-0.185517,0.388318,-2.220189,-0.476771,0.248412,-11.999469,170.327984,35.576786,-12.100034,0.250000,0.250000,
199809935,170.348350,18.117400,3,-0.956360,-0.010376,-0.021179,-0.291321,-0.051746,0.185319,-2.244671,-0.260084,0.142016,-12.034886,170.677640,35.461924,-12.057306,0.250000,0.250000,
199820720,171.046562,18.112859,3,-0.953796,-0.010559,-0.021057,-0.299500,-0.061269,0.587286,-2.523735,-0.504812,0.465640,-12.300409,171.128456,35.371199,-12.216748,0.281250,0.281250,
199830258,170.938712,18.108318,3,-0.951294,-0.010742,-0.020996,-0.307434,-0.184762,0.360594,-2.119595,-0.468586,0.201732,-11.899502,171.429763,35.235949,-12.008677,0.265625,0.265625,
199839957,171.356407,18.117400,3,-0.948669,-0.010986,-0.020935,-0.315308,-0.268280,0.341371,-2.273979,-0.528180,0.132275,-12.051801,171.757217,35.110700,-12.036961,0.265625,0.265625,
199851005,171.557395,18.117400,3,-0.945984,-0.011169,-0.020935,-0.323364,0.017642,0.534461,-2.314133,-0.426905,0.446253,-12.094371,172.106958,34.954476,-12.074615,0.234375,0.234375,
199860464,172.053642,18.112859,3,-0.943176,-0.011414,-0.020935,-0.331421,-0.223742,0.330427,-1.949377,-0.479198,0.136346,-11.729121,172.427097,34.837503,-11.848017,0.234375,0.234375,
199870327,172.456718,18.112859,3,-0.940308,-0.011658,-0.021057,-0.339478,0.009831,0.137968,-2.202361,-0.188730,0.132706,-11.996281,172.775655,34.722564,-11.945258,0.234375,0.234375,
199881121,172.859275,18.112859,3,-0.937317,-0.011963,-0.021179,-0.347595,-0.020611,0.245449,-2.063395,-0.282986,0.186658,-11.852393,173.165425,34.604110,-11.884351,0.250000,0.250000,
199890579,172.471366,18.121941,3,-0.934265,-0.012207,-0.021301,-0.355713,-0.036734,0.175163,-1.900020,-0.241005,0.119133,-11.691516,173.362197,34.413499,-11.757880,0.200000,0.220000,
199900378,173.666038,18.112859,3,-0.931152,-0.012573,-0.021484,-0.363770,0.035838,0.323820,-2.365683,-0.312874,0.281027,-12.153176,173.755694,34.329035,-12.017141,0.203125,0.203125,
199912448,173.571800,18.117400,3,-0.927979,-0.012817,-0.021606,-0.371826,-0.154670,0.179928,-1.839617,-0.327673,0.024108,-11.627845,174.134750,34.167509,-11.761815,0.187500,0.187500,
199921314,173.975456,18.117400,3,-0.924683,-0.013123,-0.021790,-0.379822,-0.011347,0.124251,-2.014129,-0.201812,0.090883,-11.808562,174.407347,34.043998,-11.792475,0.171875,0.171875,
199932692,173.975456,18.117400,3,-0.921326,-0.013428,-0.021973,-0.387939,0.167862,0.335011,-2.162231,-0.235276,0.367143,-11.953282,174.712958,33.858550,-11.897945,0.116875,0.138875,
199941566,173.867057,18.112859,3,-0.917908,-0.013672,-0.022156,-0.395935,-0.096378,0.171096,-1.790633,-0.290174,0.064429,-11.580902,174.854424,33.656690,-11.690010,0.071875,0.111875,
199950897,174.486442,18.121941,3,-0.914490,-0.013977,-0.022339,-0.403809,0.099342,0.190072,-1.982000,-0.182204,0.221496,-11.777190,175.099077,33.504726,-11.747190,0.021875,0.081875,
199961808,175.479209,18.112859,3,-0.911011,-0.014160,-0.022522,-0.411560,-0.012355,0.149556,-2.085028,-0.238885,0.101777,-11.878516,175.535102,33.418065,-11.833322,0.015625,0.051875,
199971038,176.285636,18.112859,3,-0.907410,-0.014404,-0.022705,-0.419312,0.180817,0.074386,-1.600100,-0.030644,0.194947,-11.403570,175.983607,33.399198,-11.551458,0.065625,0.065625,
199980739,175.990806,18.117400,3,-0.903870,-0.014587,-0.022827,-0.426941,-0.208896,-0.010129,-1.714828,-0.225839,-0.151778,-11.510634,176.308420,33.288346,-11.524683,0.093750,0.093750,
199991732,176.300315,18.121941,3,-0.900269,-0.014771,-0.022949,-0.434509,0.242110,0.440452,-1.867438,-0.305666,0.472599,-11.655104,176.672132,33.159369,-11.610222,0.093750,0.093750,
200001201,176.998405,18.117400,3,-0.896606,-0.014893,-0.023071,-0.442017,-0.052502,0.269263,-1.376810,-0.325677,0.126885,-11.165087,177.046734,33.091283,-11.318271,0.140625,0.123750,
200011085,177.494895,18.112859,3,-0.892944,-0.015015,-0.023132,-0.449402,0.268422,0.363428,-1.900750,-0.242931,0.445395,-11.692542,177.457104,33.026599,-11.563741,0.185625,0.150750,
200021833,176.487266,18.112859,3,-0.889099,-0.015137,-0.023132,-0.456848,0.054547,0.209217,-1.697842,-0.236840,0.170342,-11.491403,177.629813,32.793162,-11.516301,0.130625,0.130625,
200031269,177.494895,18.112859,3,-0.885132,-0.015259,-0.023132,-0.464478,-0.009327,0.119240,-1.482941,-0.191012,0.069303,-11.279351,177.913493,32.671299,-11.360894,0.080625,0.100625,
200041196,178.006584,18.117400,3,-0.881042,-0.015381,-0.023132,-0.472168,0.094366,0.212466,-1.777365,-0.226664,0.199457,-11.571643,178.254667,32.567009,-11.499117,0.062500,0.070625,
200052234,178.704276,18.112859,3,-0.876892,-0.015564,-0.023071,-0.479919,-0.081247,0.427848,-1.625482,-0.497733,0.172855,-11.404684,178.697659,32.492088,-11.437180,0.112500,0.100625,
200061724,179.107597,18.112859,3,-0.872559,-0.015686,-0.023010,-0.487671,-0.119923,0.134805,-1.325254,-0.260032,-0.023747,-11.118195,179.082319,32.434116,-11.227966,0.162500,0.130625,
200072412,179.216544,18.117400,3,-0.868103,-0.015869,-0.022949,-0.495605,0.039557,0.415514,-1.832744,-0.445032,0.250128,-11.614894,179.453440,32.325417,-11.481739,0.187500,0.160625,
200081880,178.813224,18.117400,3,-0.863525,-0.016113,-0.022766,-0.503540,0.026043,0.300260,-1.596856,-0.346605,0.176535,-11.384452,179.639063,32.143674,-11.417934,0.137500,0.137500,
200091438,179.014366,18.117400,3,-0.859070,-0.016296,-0.022644,-0.511169,0.034975,0.210818,-1.697673,-0.267858,0.133138,-11.490032,179.828827,31.962575,-11.465224,0.087500,0.107500,
200102599,179.713157,18.112859,3,-0.854492,-0.016479,-0.022461,-0.518738,0.089300,0.517242,-1.822323,-0.526239,0.321079,-11.599570,180.163172,31.820102,-11.553338,0.037500,0.077500,
200112007,180.720573,18.112859,3,-0.849854,-0.016724,-0.022339,-0.526306,-0.126060,-0.032336,-1.291583,-0.111572,-0.125457,-11.093276,180.566482,31.780389,-11.251595,0.078125,0.078125,
200121753,180.613151,18.108318,3,-0.845032,-0.016968,-0.022156,-0.533997,0.096891,0.166692,-1.694956,-0.209894,0.160369,-11.490386,180.884394,31.673719,-11.408210,0.093750,0.093750,
200132680,179.928977,18.121941,3,-0.840088,-0.017334,-0.021973,-0.541748,0.119178,0.317071,-1.422761,-0.329922,0.243489,-11.210653,181.050901,31.442762,-11.278642,0.038750,0.060750,
200142177,181.139182,18.121941,3,-0.835144,-0.017639,-0.021851,-0.549316,-0.020282,0.224313,-1.334246,-0.295241,0.071946,-11.124903,181.365554,31.347353,-11.177809,0.000000,0.033750,
200151888,181.232444,18.117400,3,-0.830261,-0.017944,-0.021667,-0.556702,0.198639,0.241376,-1.761724,-0.256857,0.282340,-11.554040,181.644489,31.219956,-11.424568,0.000000,0.003750,
200162949,181.030204,18.117400,3,-0.825378,-0.018250,-0.021484,-0.563904,-0.237924,0.289304,-1.434592,-0.440798,-0.112518,-11.218379,181.874086,31.026133,-11.289337,0.000000,0.000000,
200172174,181.434135,18.117400,3,-0.820496,-0.018494,-0.021423,-0.570984,0.035048,0.141664,-1.328219,-0.204841,0.085330,-11.124011,182.077431,30.872708,-11.180907,0.000000,0.000000,
200182048,182.334312,18.112859,3,-0.815491,-0.018799,-0.021240,-0.578064,0.004967,0.074121,-1.538383,-0.158451,0.032874,-11.337492,182.429793,30.789967,-11.283605,0.000000,0.000000,
200192781,182.226371,18.108318,3,-0.810425,-0.019165,-0.021118,-0.585144,0.098902,0.081101,-1.363481,-0.131409,0.124801,-11.163401,182.721532,30.647044,-11.204768,0.000000,0.000000,
200202417,182.146720,18.121941,3,-0.805359,-0.019470,-0.020935,-0.592102,0.074354,0.105095,-1.158677,-0.145738,0.105741,-10.957621,182.908694,30.475420,-11.042675,0.000000,0.000000,
200213246,182.334312,18.112859,3,-0.800171,-0.019775,-0.020752,-0.599121,-0.131537,0.338369,-1.666403,-0.460882,-0.021705,-11.449140,183.130428,30.286099,-11.309265,0.000000,0.000000,
200222690,183.046958,18.117400,3,-0.794861,-0.020081,-0.020569,-0.606140,0.141105,0.268084,-1.320724,-0.303911,0.216339,-11.110239,183.400327,30.171592,-11.178731,0.000000,0.000000,
200232394,183.543723,18.112859,3,-0.789429,-0.020386,-0.020325,-0.613159,-0.013697,0.262837,-1.337555,-0.336381,0.052197,-11.126413,183.719436,30.079986,-11.144416,0.000000,0.000000,
200243486,183.760673,18.121941,3,-0.783936,-0.020752,-0.020081,-0.620178,-0.031916,0.277337,-1.495756,-0.367038,0.038719,-11.283275,184.060107,29.959574,-11.235489,0.000000,0.000000,
200252693,184.056266,18.117400,3,-0.778381,-0.021118,-0.019836,-0.627136,0.064076,0.216618,-1.089167,-0.267037,0.115711,-10.881191,184.334781,29.859118,-11.003116,0.000000,0.000000,
200262484,184.970817,18.121941,3,-0.772705,-0.021484,-0.019592,-0.634094,0.001045,0.089103,-1.362636,-0.176390,0.022035,-11.161177,184.745643,29.822154,-11.106781,0.000000,0.000000,
200273261,184.149009,18.112859,3,-0.766968,-0.021851,-0.019348,-0.641052,0.101714,0.303846,-1.480368,-0.368345,0.160888,-11.256894,184.954658,29.633323,-11.205238,0.000000,0.000000,
200282820,185.266410,18.117400,3,-0.761108,-0.022278,-0.019104,-0.647949,0.001067,0.285243,-1.152886,-0.352775,0.055772,-10.930760,185.295820,29.564756,-11.025215,0.000000,0.000000,
200292592,185.467674,18.117400,3,-0.755249,-0.022644,-0.018860,-0.654785,0.036987,0.125226,-1.366199,-0.204708,0.069734,-11.153006,185.616358,29.475321,-11.109028,0.000000,0.000000,
200303618,185.172599,18.121941,3,-0.749329,-0.023010,-0.018616,-0.661560,-0.034537,0.252345,-1.188915,-0.332063,0.014699,-10.968614,185.857585,29.304045,-11.016937,0.000000,0.000000,
200312867,185.886466,18.126482,3,-0.743286,-0.023438,-0.018311,-0.668274,0.059708,0.031428,-1.073680,-0.087777,0.084080,-10.866894,186.133570,29.206942,-10.918528,0.000000,0.000000,
200322728,186.073081,18.117400,3,-0.737305,-0.023804,-0.018066,-0.674927,-0.023562,0.297812,-1.517249,-0.389855,0.022985,-11.294263,186.409693,29.088720,-11.164961,0.000000,0.000000,
200333455,186.182121,18.121941,3,-0.731201,-0.024170,-0.017822,-0.681519,-0.049645,0.191734,-1.144316,-0.265710,-0.015757,-10.928523,186.678496,28.945625,-11.009890,0.000000,0.000000,
200343086,186.679038,18.117400,3,-0.725037,-0.024536,-0.017578,-0.688049,-0.004608,0.105047,-1.078816,-0.174411,0.014509,-10.868119,186.956876,28.841053,-10.916906,0.000000,0.000000,
200353904,186.974174,18.112859,3,-0.718872,-0.024963,-0.017334,-0.694519,0.061309,0.329934,-1.521235,-0.425029,0.096320,-11.295634,187.271441,28.720949,-11.165302,0.000000,0.000000,
200363351,187.377311,18.112859,3,-0.712585,-0.025330,-0.017090,-0.700928,0.007131,0.203370,-1.106844,-0.277390,0.033261,-10.890169,187.562127,28.630404,-10.984851,0.000000,0.000000,
200373031,187.377311,18.112859,3,-0.706238,-0.025696,-0.016846,-0.707336,0.019771,0.079440,-1.263824,-0.164438,0.038406,-11.054328,187.804151,28.502317,-11.030419,0.000000,0.000000,
200384103,188.090812,18.117400,3,-0.699829,-0.026062,-0.016602,-0.713623,0.097499,0.333496,-1.364816,-0.416918,0.115075,-11.139421,188.172729,28.411514,-11.101909,0.000000,0.000000,
200393590,187.982810,18.112859,3,-0.693420,-0.026428,-0.016357,-0.719849,0.043828,0.211769,-1.009813,-0.274122,0.049565,-10.793368,188.406220,28.287276,-10.899548,0.000000,0.000000,
200403327,187.593833,18.121941,3,-0.686890,-0.026794,-0.016174,-0.726074,0.057476,0.062534,-1.095895,-0.133537,0.071972,-10.888104,188.529042,28.088508,-10.892045,0.000000,0.000000,
200414093,188.400657,18.121941,3,-0.680359,-0.027161,-0.015930,-0.732178,-0.038825,0.351149,-1.442817,-0.436700,-0.037667,-11.218741,188.806736,27.953264,-11.106315,0.000000,0.000000,
200423525,188.386527,18.112859,3,-0.673767,-0.027527,-0.015747,-0.738220,0.026195,0.196932,-1.047624,-0.264325,0.022751,-10.832746,188.991225,27.802793,-10.926892,0.000000,0.000000,
200433085,189.799064,18.112859,3,-0.667175,-0.027893,-0.015564,-0.744202,0.099826,0.054989,-1.282684,-0.147377,0.114347,-11.074496,189.407696,27.788744,-11.023697,0.000000,0.000000,
200444109,189.301963,18.117400,3,-0.660461,-0.028259,-0.015381,-0.750122,0.049311,0.194212,-1.273837,-0.281172,0.048445,-11.058407,189.693570,27.654931,-11.046462,0.000000,0.000000,
200453745,189.611869,18.121941,3,-0.653748,-0.028625,-0.015137,-0.755981,-0.012954,0.165153,-0.857610,-0.216508,-0.024213,-10.646633,189.944275,27.543061,-10.784227,0.000000,0.000000,
200463573,190.418876,18.121941,3,-0.647034,-0.028992,-0.014954,-0.761780,0.022340,0.051559,-1.281202,-0.137243,0.035613,-11.075531,190.303274,27.488327,-10.975282,0.000000,0.000000,
200474346,191.024558,18.121941,3,-0.640198,-0.029297,-0.014771,-0.767517,0.003891,0.259781,-1.199958,-0.333257,-0.019746,-10.982606,190.733852,27.451965,-10.980083,0.000000,0.000000,
200483895,190.808494,18.112859,3,-0.633362,-0.029663,-0.014587,-0.773132,0.032258,0.115059,-1.001582,-0.184410,0.032365,-10.792817,191.009488,27.357564,-10.857260,0.000000,0.000000,
200494817,191.817008,18.112859,3,-0.626526,-0.030029,-0.014465,-0.778687,0.074022,0.136850,-1.308761,-0.243669,0.061345,-11.096679,191.458895,27.328511,-11.014284,0.000000,0.000000,
200504048,190.837852,18.131023,3,-0.619568,-0.030334,-0.014282,-0.784241,0.014789,0.066854,-0.869513,-0.133515,0.013054,-10.664577,191.594387,27.158268,-10.784925,0.000000,0.000000,
200513768,191.335014,18.126482,3,-0.612610,-0.030640,-0.014160,-0.789673,0.021072,0.039466,-1.132730,-0.125839,0.030123,-10.928903,191.809292,27.022519,-10.879357,0.000000,0.000000,
200524870,192.314201,18.108318,3,-0.605652,-0.031006,-0.013977,-0.795044,0.062650,0.272873,-1.300252,-0.372920,0.013199,-11.080986,192.203165,26.956755,-11.011597,0.000000,0.000000,
200534332,192.423301,18.112859,3,-0.598572,-0.031311,-0.013855,-0.800354,-0.028986,0.130654,-0.893808,-0.183618,-0.044099,-10.687293,192.499005,26.881208,-10.798895,0.000000,0.000000,
200544026,192.437461,18.121941,3,-0.591492,-0.031616,-0.013733,-0.805603,-0.004940,0.136802,-1.228900,-0.214735,-0.027917,-11.021089,192.747542,26.767336,-10.944626,0.000000,0.000000,
200554918,193.244682,18.121941,3,-0.584351,-0.031921,-0.013611,-0.810791,0.061219,0.294148,-1.321660,-0.389629,-0.014194,-11.102250,193.131528,26.702835,-11.048005,0.000000,0.000000,
200564269,193.136619,18.117400,3,-0.577148,-0.032166,-0.013489,-0.815918,-0.001458,0.012849,-0.786128,-0.074937,0.004808,-10.586714,193.381738,26.604605,-10.745458,0.000000,0.000000,
200574198,192.840812,18.121941,3,-0.569946,-0.032471,-0.013306,-0.820923,0.008568,0.217075,-1.275111,-0.301248,-0.047350,-11.062444,193.544082,26.433329,-10.953362,0.000000,0.000000,
200585206,193.835868,18.112859,3,-0.562683,-0.032715,-0.013245,-0.825928,0.045006,0.188076,-0.958710,-0.263566,-0.011286,-10.747483,193.889068,26.348050,-10.818331,0.000000,0.000000,
200594619,193.944450,18.117400,3,-0.555420,-0.032959,-0.013123,-0.830811,-0.019877,0.123404,-0.814708,-0.166790,-0.050852,-10.610602,194.146997,26.254661,-10.682088,0.000000,0.000000,
200604309,193.850547,18.121941,3,-0.548157,-0.033203,-0.013062,-0.835632,0.048973,0.190988,-1.234245,-0.282698,-0.010251,-11.022724,194.345377,26.114038,-10.905502,0.000000,0.000000,
200615469,194.052513,18.121941,3,-0.540771,-0.033447,-0.012939,-0.840393,-0.016611,0.252513,-1.090909,-0.307927,-0.103766,-10.878770,194.581281,25.959438,-10.887970,0.000000,0.000000,
200624847,194.254997,18.121941,3,-0.533386,-0.033691,-0.012878,-0.845093,-0.012968,0.049592,-0.867647,-0.107296,-0.019986,-10.668104,194.763144,25.821709,-10.743768,0.000000,0.000000,
200635663,195.141075,18.108318,3,-0.525940,-0.033936,-0.012756,-0.849731,0.049982,0.165682,-1.163346,-0.256975,-0.010581,-10.954020,195.112582,25.746414,-10.881664,0.000000,0.000000,
200644895,195.169914,18.126482,3,-0.518494,-0.034180,-0.012695,-0.854309,0.034360,0.065254,-0.869682,-0.146525,0.010713,-10.667412,195.360567,25.654656,-10.741142,0.000000,0.000000,
200654644,195.357749,18.117400,3,-0.510986,-0.034363,-0.012573,-0.858826,-0.023768,0.040718,-0.748785,-0.084911,-0.030676,-10.551351,195.609653,25.551463,-10.616664,0.000000,0.000000,
200665605,195.682487,18.131023,3,-0.503418,-0.034546,-0.012512,-0.863220,0.078344,0.304147,-1.224461,-0.394246,-0.065863,-11.006566,195.902685,25.439230,-10.872388,0.000000,0.000000,
200675099,196.568687,18.117400,3,-0.495850,-0.034668,-0.012451,-0.867615,-0.016169,0.088917,-0.870872,-0.143654,-0.044941,-10.669987,196.268476,25.414761,-10.739637,0.000000,0.000000,
200684780,196.554008,18.108318,3,-0.488281,-0.034851,-0.012390,-0.871887,0.051492,0.110233,-0.962159,-0.198611,0.001369,-10.747075,196.567460,25.343234,-10.744514,0.000000,0.000000,
200695869,196.461143,18.112859,3,-0.480713,-0.034973,-0.012329,-0.876099,0.089547,0.166512,-1.213174,-0.279919,0.003579,-10.992893,196.827895,25.209419,-10.907418,0.000000,0.000000,
200705259,196.879325,18.121941,3,-0.473083,-0.035095,-0.012268,-0.880249,-0.067882,0.101293,-0.733488,-0.107372,-0.106488,-10.525941,197.073799,25.116683,-10.657219,0.000000,0.000000,
200714988,196.568687,18.117400,3,-0.465393,-0.035217,-0.012207,-0.884338,0.057476,0.062534,-1.095895,-0.171772,0.030050,-10.883146,197.223081,24.953268,-10.805400,0.000000,0.000000,
200725742,197.269187,18.112859,3,-0.457703,-0.035339,-0.012085,-0.888306,0.060700,0.219350,-0.882920,-0.288346,-0.067119,-10.662102,197.499451,24.843781,-10.711415,0.000000,0.000000,
200735278,197.780845,18.117400,3,-0.450012,-0.035461,-0.012024,-0.892212,0.017183,0.002380,-0.677418,-0.067009,0.020902,-10.471600,197.788594,24.776333,-10.554126,0.000000,0.000000,
200745001,197.889457,18.121941,3,-0.442261,-0.035522,-0.011902,-0.896118,0.082385,0.237905,-1.130541,-0.327949,-0.071668,-10.907550,198.047842,24.681735,-10.785926,0.000000,0.000000,
200756101,197.687431,18.121941,3,-0.434509,-0.035645,-0.011841,-0.899902,0.067778,0.147151,-0.955655,-0.234652,-0.024614,-10.738723,198.253655,24.521746,-10.754968,0.000000,0.000000,
200765384,198.386955,18.117400,3,-0.426697,-0.035706,-0.011719,-0.903625,0.002836,-0.050975,-0.721902,-0.023655,0.040745,-10.519472,198.505816,24.439601,-10.600513,0.000000,0.000000,
200776363,199.007804,18.126482,3,-0.418945,-0.035828,-0.011597,-0.907227,0.097324,0.296904,-1.155344,-0.376032,-0.107037,-10.929203,198.867494,24.376802,-10.816089,0.000000,0.000000,
200785630,198.898643,18.121941,3,-0.411133,-0.035950,-0.011536,-0.910767,0.093069,0.025472,-0.680513,-0.141325,0.061574,-10.469240,199.098796,24.283539,-10.588601,0.000000,0.000000,
200795505,198.603721,18.126482,3,-0.403259,-0.036011,-0.011414,-0.914307,0.021145,-0.029688,-0.763276,-0.059665,0.039454,-10.558611,199.245405,24.122951,-10.568933,0.000000,0.000000,
200806180,198.603721,18.126482,3,-0.395386,-0.036133,-0.011292,-0.917725,0.124729,0.195380,-1.127654,-0.315691,-0.035166,-10.905432,199.382121,23.933822,-10.789635,0.000000,0.000000,
200815723,200.003471,18.117400,3,-0.387451,-0.036194,-0.011169,-0.921082,0.049294,0.089272,-0.704809,-0.161654,-0.020392,-10.492894,199.726419,23.905176,-10.595009,0.000000,0.000000,
200825536,199.722129,18.131023,3,-0.379578,-0.036316,-0.011047,-0.924377,0.040131,-0.001952,-0.883835,-0.098050,0.039702,-10.676915,199.959680,23.799916,-10.648728,0.000000,0.000000,
200836596,200.407127,18.117400,3,-0.371643,-0.036499,-0.010864,-0.927612,0.043236,0.206126,-0.940527,-0.249806,-0.112122,-10.723478,200.306049,23.732045,-10.697752,0.000000,0.000000,
200846032,200.515251,18.121941,3,-0.363647,-0.036621,-0.010742,-0.930725,0.111964,0.017422,-0.601498,-0.145290,0.062908,-10.390309,200.568726,23.658308,-10.496109,0.000000,0.000000,
200855739,200.702628,18.112859,3,-0.355713,-0.036804,-0.010559,-0.933838,0.078428,-0.013215,-0.785192,-0.123315,0.066417,-10.576370,200.822942,23.570908,-10.548749,0.000000,0.000000,
200866733,200.515251,18.121941,3,-0.347717,-0.036926,-0.010376,-0.936829,0.124976,0.162818,-0.967672,-0.281132,-0.032743,-10.748022,201.023798,23.417957,-10.679447,0.000000,0.000000,
200876188,200.421806,18.126482,3,-0.339722,-0.037048,-0.010132,-0.939758,0.108763,0.056746,-0.604722,-0.171599,0.030213,-10.392068,201.132000,23.250295,-10.490967,0.000000,0.000000,
200885809,201.121543,18.121941,3,-0.331665,-0.037170,-0.009949,-0.942627,0.074264,0.069309,-0.959103,-0.179440,-0.004844,-10.747197,201.353225,23.145686,-10.659020,0.000000,0.000000,
200896865,201.929954,18.121941,3,-0.323669,-0.037292,-0.009705,-0.945374,0.143950,0.120594,-0.708879,-0.252841,-0.002282,-10.490631,201.716492,23.094859,-10.548577,0.000000,0.000000,
200906374,201.820762,18.117400,3,-0.315552,-0.037354,-0.009460,-0.948120,0.097486,-0.054632,-0.536297,-0.094860,0.103064,-10.329104,201.955176,23.008755,-10.404631,0.000000,0.000000,
200917204,202.023948,18.117400,3,-0.307434,-0.037476,-0.009216,-0.950806,0.147326,0.117862,-0.915126,-0.264911,-0.008752,-10.696656,202.216605,22.900850,-10.596161,0.000000,0.000000,
200926656,202.131553,18.121941,3,-0.299255,-0.037598,-0.008850,-0.953369,0.103285,0.109283,-0.530375,-0.191488,-0.032187,-10.316598,202.416682,22.793597,-10.412805,0.000000,0.000000,
200936316,202.629264,18.117400,3,-0.291077,-0.037781,-0.008545,-0.955933,0.139752,-0.062984,-0.713188,-0.146328,0.134605,-10.502644,202.676173,22.716402,-10.471727,0.000000,0.000000,
200947070,203.048240,18.126482,3,-0.282959,-0.037964,-0.008179,-0.958374,0.205716,0.225397,-0.866004,-0.369982,-0.071849,-10.639879,202.989514,22.644209,-10.582011,0.000000,0.000000,
200956547,202.644492,18.126482,3,-0.274780,-0.038086,-0.007812,-0.960693,0.035149,-0.014538,-0.489524,-0.065499,0.034587,-10.285341,203.139053,22.507162,-10.387436,0.000000,0.000000,
200966292,204.245902,18.117400,3,-0.266602,-0.038269,-0.007446,-0.963013,0.092398,0.054003,-0.791005,-0.171322,0.007283,-10.579815,203.565042,22.529804,-10.513607,0.015625,0.015625,
200977346,203.654655,18.126482,3,-0.258423,-0.038452,-0.007080,-0.965271,0.176483,0.211517,-0.785759,-0.324683,-0.096972,-10.563366,203.830220,22.423192,-10.546242,0.046875,0.045625,
200986775,203.950279,18.121941,3,-0.250244,-0.038696,-0.006714,-0.967407,0.053413,-0.011144,-0.431110,-0.078990,0.032575,-10.226269,204.063697,22.340750,-10.336381,0.096875,0.075625,
200996603,204.151908,18.121941,3,-0.242004,-0.038879,-0.006348,-0.969482,0.131710,0.052414,-0.811139,-0.214099,0.020513,-10.597099,204.299252,22.246645,-10.507377,0.140625,0.105625,
201007197,204.665458,18.126482,3,-0.233826,-0.039124,-0.005981,-0.971497,0.137718,0.200855,-0.735125,-0.279487,-0.110756,-10.516783,204.602914,22.176777,-10.513545,0.190625,0.135625,
201016771,204.556785,18.121941,3,-0.225586,-0.039368,-0.005615,-0.973389,0.011999,0.040249,-0.542876,-0.077637,-0.025493,-10.339607,204.806130,22.072538,-10.399464,0.240625,0.165625,
201026580,204.556785,18.121941,3,-0.217346,-0.039612,-0.005249,-0.975281,0.246127,0.234289,-1.014814,-0.410363,-0.106775,-10.787363,204.975433,21.938393,-10.653876,0.190625,0.190625,
201037642,205.862815,18.117400,3,-0.209106,-0.039856,-0.004822,-0.977051,0.204358,0.177517,-0.517958,-0.305348,-0.078395,-10.297323,205.383688,21.924800,-10.420021,0.245625,0.223625,
201047140,205.364951,18.121941,3,-0.200806,-0.040100,-0.004456,-0.978821,0.135198,-0.036559,-0.558043,-0.157337,0.088609,-10.348447,205.587956,21.824373,-10.373078,0.290625,0.250625,
201057944,205.862815,18.117400,3,-0.192200,-0.040405,-0.004089,-0.980530,0.221332,0.290845,-0.969991,-0.393660,-0.178879,-10.744967,205.874595,21.739765,-10.616987,0.345625,0.283625,
201067429,205.971519,18.121941,3,-0.183594,-0.040710,-0.003662,-0.982178,-0.052691,0.491498,-0.658087,-0.184804,-0.478619,-10.451692,206.098493,21.651900,-10.508575,0.390625,0.310625,
201077008,205.971519,18.121941,3,-0.174927,-0.041016,-0.003235,-0.983704,-0.043762,0.038287,-0.699126,-0.039871,-0.044875,-10.501778,206.281644,21.536803,-10.504117,0.440625,0.340625,
201088042,205.675834,18.126482,3,-0.166199,-0.041321,-0.002808,-0.985229,0.151823,0.321752,-1.040299,-0.345316,-0.251116,-10.821042,206.405156,21.348972,-10.711981,0.437500,0.373625,
201097427,206.281913,18.126482,3,-0.157471,-0.041626,-0.002441,-0.986633,0.103229,0.339598,-0.500403,-0.253859,-0.289555,-10.287531,206.581999,21.238365,-10.433598,0.387500,0.387500,
201107151,207.573478,18.112859,3,-0.148804,-0.041931,-0.002014,-0.987976,0.202994,0.038438,-0.948692,-0.290319,0.031640,-10.732020,206.973592,21.246834,-10.629320,0.437500,0.417500,
201118192,206.281913,18.126482,3,-0.140137,-0.042236,-0.001587,-0.989258,-0.282601,0.257188,-0.880767,0.118664,-0.323042,-10.701776,207.077989,21.050419,-10.676844,0.487500,0.447500,
201127659,207.090751,18.126482,3,-0.131531,-0.042603,-0.001160,-0.990417,-0.043346,0.007338,-0.558940,-0.012435,-0.014563,-10.365668,207.279214,20.953880,-10.472754,0.537500,0.477500,
201137202,207.386466,18.121941,3,-0.122925,-0.042908,-0.000793,-0.991516,0.272608,0.158877,-1.067921,-0.397638,-0.086041,-10.844727,207.498743,20.862574,-10.716719,0.587500,0.507500,
201148302,207.371238,18.112859,3,-0.114380,-0.043274,-0.000366,-0.992493,-0.027561,0.074399,-0.682724,-0.050467,-0.076285,-10.478331,207.705806,20.731743,-10.560368,0.546875,0.537500,
201157688,207.697440,18.126482,3,-0.105957,-0.043640,0.000061,-0.993408,0.288465,0.156784,-0.822251,-0.386784,-0.094121,-10.589938,207.898359,20.631369,-10.579762,0.546875,0.546875,
201167442,207.588706,18.121941,3,-0.097595,-0.044006,0.000488,-0.994263,-0.225803,0.090577,-1.152832,0.093274,-0.124588,-10.964647,208.041098,20.489193,-10.832197,0.496875,0.516875,
201178286,208.194877,18.121941,3,-0.089172,-0.044373,0.000854,-0.995056,0.289558,0.132284,-0.761250,-0.381134,-0.071179,-10.529815,208.291472,20.392303,-10.633873,0.453125,0.486875,
201187757,208.194877,18.121941,3,-0.080750,-0.044739,0.001282,-0.995728,-0.075704,-0.046992,-0.691532,0.014560,0.036080,-10.494519,208.466053,20.281844,-10.542475,0.406250,0.456875,
201198576,208.895133,18.117400,3,-0.072388,-0.045166,0.001709,-0.996338,0.234479,0.171753,-1.186360,-0.366861,-0.124417,-10.959449,208.765188,20.212191,-10.815954,0.456250,0.456250,
201208043,208.692863,18.117400,3,-0.064209,-0.045532,0.002075,-0.996887,0.007711,0.139053,-0.796778,-0.100759,-0.135361,-10.593024,208.942526,20.103639,-10.669742,0.506250,0.486250,
201217635,208.412345,18.131023,3,-0.056274,-0.045959,0.002502,-0.997375,0.003095,-0.013576,-0.941273,-0.089015,0.021789,-10.738412,209.035623,19.940239,-10.714783,0.456250,0.456250,
201228700,209.299095,18.117400,3,-0.048645,-0.046326,0.002869,-0.997742,0.205136,0.289714,-1.176070,-0.348469,-0.253671,-10.953744,209.304919,19.848924,-10.871509,0.437500,0.437500,
201238148,209.610648,18.121941,3,-0.041199,-0.046753,0.003235,-0.998047,0.156708,-0.054596,-0.596192,-0.213429,0.079524,-10.381112,209.549276,19.786296,-10.549871,0.482500,0.464500,
201247884,209.206107,18.121941,3,-0.033813,-0.047119,0.003601,-0.998291,0.090550,0.106226,-0.952599,-0.190640,-0.080459,-10.743532,209.677160,19.642621,-10.676889,0.432500,0.434500,
201258646,209.517143,18.126482,3,-0.026367,-0.047546,0.003967,-0.998535,0.148250,0.091751,-0.834329,-0.234072,-0.071930,-10.621256,209.857978,19.510174,-10.640402,0.377500,0.401500,
201268158,210.621513,18.121941,3,-0.018799,-0.047913,0.004333,-0.998657,0.069620,0.059947,-0.604384,-0.128960,-0.043795,-10.400666,210.186086,19.499059,-10.483163,0.422500,0.422500,
201277895,210.216941,18.121941,3,-0.011047,-0.048340,0.004700,-0.998779,0.073509,0.097033,-1.059696,-0.185331,-0.082593,-10.853886,210.381194,19.396872,-10.726308,0.472500,0.452500,
201288893,210.419761,18.121941,3,-0.003357,-0.048767,0.005127,-0.998779,0.036130,0.047204,-0.887866,-0.127453,-0.030428,-10.677125,210.601099,19.283785,-10.694050,0.527500,0.485500,
201298275,211.025565,18.121941,3,0.004272,-0.049133,0.005493,-0.998779,-0.117219,0.216823,-0.673538,0.051115,-0.207031,-10.481981,210.861067,19.234462,-10.554958,0.577500,0.515500,
201308128,210.123954,18.126482,3,0.011536,-0.049500,0.005859,-0.998718,0.126746,0.144769,-0.985856,-0.227939,-0.131637,-10.768183,210.912075,19.044585,-10.694809,0.622500,0.542500,
201318902,210.419761,18.121941,3,0.018860,-0.049866,0.006287,-0.998535,-0.022562,0.248146,-0.677608,-0.039705,-0.238493,-10.479138,211.024472,18.875808,-10.553359,0.567500,0.567500,
201328500,211.228385,18.121941,3,0.026367,-0.050293,0.006714,-0.998352,0.026600,0.096023,-0.528086,-0.075773,-0.084284,-10.324519,211.243368,18.800234,-10.403269,0.517500,0.537500,
201338290,211.228385,18.121941,3,0.033936,-0.050659,0.007141,-0.998108,0.065874,0.429690,-1.087277,-0.153692,-0.418421,-10.883157,211.424076,18.691967,-10.718013,0.467500,0.507500,
201349394,211.336112,18.126482,3,0.041809,-0.051025,0.007629,-0.997803,-0.003138,-0.251483,-0.518352,-0.072689,0.257425,-10.312983,211.614536,18.567295,-10.452367,0.417500,0.477500,
201358754,212.348197,18.126482,3,0.049744,-0.051392,0.008057,-0.997437,0.236496,0.121141,-1.044562,-0.337821,-0.125854,-10.819590,211.925276,18.550793,-10.693214,0.467500,0.467500,
201369720,212.145866,18.126482,3,0.057617,-0.051697,0.008484,-0.996948,-0.021314,0.109698,-0.646441,-0.035208,-0.095283,-10.451192,212.169412,18.461236,-10.534478,0.522500,0.500500,
201379154,212.332939,18.117400,3,0.065186,-0.052063,0.008911,-0.996460,0.214806,0.067606,-0.607265,-0.272779,-0.088557,-10.387580,212.373759,18.382257,-10.438132,0.567500,0.527500,
201388786,212.239402,18.121941,3,0.072510,-0.052368,0.009338,-0.995972,-0.136351,0.009227,-0.842721,0.036145,0.025356,-10.656563,212.525159,18.264241,-10.581395,0.617500,0.557500,
201399612,212.145866,18.126482,3,0.079590,-0.052673,0.009766,-0.995361,0.094365,0.268686,-0.808910,-0.139945,-0.268946,-10.607883,212.651234,18.106400,-10.598769,0.672500,0.590500,
201409063,212.348197,18.126482,3,0.086609,-0.052979,0.010193,-0.994812,-0.228252,0.112797,-0.476398,0.185221,-0.058726,-10.296831,212.765156,17.974286,-10.400738,0.671875,0.617500,
201418764,212.565757,18.135564,3,0.093689,-0.053284,0.010559,-0.994141,0.009317,0.154371,-0.984842,-0.095791,-0.140717,-10.779663,212.901679,17.847029,-10.649264,0.621875,0.621875,
201429844,213.063438,18.131023,3,0.101135,-0.053589,0.010986,-0.993347,0.185116,0.101762,-0.757095,-0.243709,-0.128935,-10.535078,213.129074,17.748536,-10.574372,0.625000,0.625000,
201439309,213.561668,18.126482,3,0.108765,-0.053894,0.011475,-0.992554,-0.057147,-0.058267,-0.572924,-0.025274,0.082657,-10.372225,213.377641,17.700375,-10.441788,0.670000,0.652000,
201449048,213.546958,18.117400,3,0.116455,-0.054138,0.011902,-0.991638,0.092742,0.092208,-1.020273,-0.186970,-0.096401,-10.807153,213.581193,17.614405,-10.681419,0.720000,0.682000,
201460049,214.261741,18.121941,3,0.124084,-0.054382,0.012390,-0.990723,-0.214056,-0.048688,-0.531979,0.128972,0.107283,-10.349474,213.901813,17.577541,-10.463704,0.775000,0.715000,
201469309,213.857566,18.121941,3,0.131531,-0.054688,0.012817,-0.989746,-0.061728,0.055206,-0.887021,-0.035599,-0.020145,-10.690720,214.055825,17.473334,-10.612597,0.825000,0.745000,
201479091,214.463584,18.121941,3,0.138794,-0.054932,0.013245,-0.988708,0.089147,0.358622,-0.953933,-0.104445,-0.355289,-10.754770,214.302548,17.414442,-10.705842,0.870000,0.772000,
201490146,213.965843,18.126482,3,0.146057,-0.055176,0.013672,-0.987671,0.087591,0.078009,-0.606166,-0.138971,-0.093555,-10.398680,214.431388,17.261259,-10.504385,0.925000,0.805000,
201499566,214.853599,18.112859,3,0.153320,-0.055420,0.014099,-0.986511,-0.064343,0.065193,-0.769856,-0.018949,-0.028227,-10.577188,214.672600,17.210323,-10.552132,0.975000,0.835000,
201510509,214.868858,18.121941,3,0.160767,-0.055603,0.014587,-0.985291,0.055228,0.306867,-0.998248,-0.079574,-0.293437,-10.803753,214.897040,17.114540,-10.717162,1.000000,0.865000,
201519763,214.463584,18.121941,3,0.168152,-0.055847,0.015076,-0.984070,0.034185,0.028661,-0.660210,-0.107732,-0.029085,-10.458127,214.973785,16.967693,-10.547271,1.000000,0.895000,
201529504,215.071220,18.121941,3,0.175537,-0.056030,0.015503,-0.982727,0.091311,0.113482,-1.041682,-0.173329,-0.127478,-10.836280,215.156780,16.873229,-10.736822,1.000000,0.925000,
201540224,214.775810,18.126482,3,0.182922,-0.056152,0.015991,-0.981384,-0.078239,0.246990,-0.843756,0.057401,-0.185656,-10.655076,215.265719,16.715850,-10.683209,1.000000,0.955000,
201549672,215.677848,18.121941,3,0.190247,-0.056335,0.016479,-0.979980,-0.026293,0.086492,-0.831195,-0.043405,-0.055445,-10.629979,215.500350,16.662742,-10.648295,1.000000,0.985000,
201559409,215.180045,18.126482,3,0.197632,-0.056458,0.016907,-0.978516,-0.111194,0.470205,-1.166552,0.138539,-0.377605,-10.993214,215.602115,16.519377,-10.874518,1.000000,1.000000,
201570400,215.786643,18.126482,3,0.204834,-0.056641,0.017395,-0.976990,-0.336718,-0.064711,-0.686024,0.195249,0.200605,-10.510666,215.817610,16.424528,-10.635878,1.000000,1.000000,
201579915,215.288841,18.131023,3,0.212036,-0.056702,0.017822,-0.975464,0.152561,-0.185301,-0.889965,-0.321831,0.120440,-10.655927,215.874374,16.262267,-10.649030,1.000000,1.000000,
201589729,216.486900,18.121941,3,0.219177,-0.056824,0.018311,-0.973877,0.003637,0.257363,-1.170263,-0.039660,-0.220787,-10.976168,216.148091,16.224245,-10.863587,1.000000,1.000000,
201601794,215.584800,18.126482,3,0.226074,-0.056946,0.018738,-0.972290,-0.030339,0.117754,-0.735439,-0.015278,-0.099294,-10.540435,216.237517,16.032963,-10.651644,1.000000,1.000000,
201610603,216.393852,18.126482,3,0.232849,-0.057007,0.019165,-0.970642,-0.024010,0.108260,-1.098443,-0.069963,-0.072756,-10.899704,216.407624,15.955142,-10.814338,1.000000,1.000000,
201620093,216.689811,18.121941,3,0.239502,-0.057068,0.019592,-0.969055,0.140299,0.242935,-1.131854,-0.148626,-0.269243,-10.926436,216.611373,15.883735,-10.887858,1.000000,1.000000,
201631869,216.299735,18.131023,3,0.245850,-0.057190,0.020020,-0.967407,-0.006890,0.083279,-0.811568,-0.052505,-0.078018,-10.614009,216.739306,15.723257,-10.708250,1.000000,1.000000,
201640720,216.799186,18.126482,3,0.252258,-0.057251,0.020447,-0.965759,0.095182,0.045627,-0.927966,-0.175063,-0.077717,-10.716837,216.889274,15.635400,-10.713881,1.000000,1.000000,
201650176,217.094108,18.121941,3,0.258484,-0.057312,0.020874,-0.964111,0.153593,0.303702,-1.058482,-0.118699,-0.328033,-10.858358,217.074970,15.556050,-10.808639,1.000000,1.000000,
201661212,217.094108,18.121941,3,0.264648,-0.057373,0.021301,-0.962402,0.011413,0.069586,-0.663266,-0.056781,-0.059930,-10.465386,217.249606,15.442528,-10.583510,1.000000,1.000000,
201670444,217.499473,18.121941,3,0.270813,-0.057373,0.021729,-0.960693,0.130623,0.111894,-1.061816,-0.188715,-0.151804,-10.852099,217.438484,15.370970,-10.759668,1.000000,1.000000,
201681360,217.701377,18.121941,3,0.276978,-0.057373,0.022156,-0.958923,-0.000454,0.270732,-0.974720,0.012936,-0.215876,-10.790239,217.654858,15.282942,-10.779718,1.000000,1.000000,
201690744,217.904319,18.121941,3,0.283081,-0.057373,0.022583,-0.957092,0.025016,-0.097543,-0.649560,-0.155579,0.076365,-10.439039,217.844549,15.213832,-10.556276,1.000000,1.000000,
201700459,217.810203,18.126482,3,0.289124,-0.057312,0.022949,-0.955322,0.041472,0.259156,-1.112019,-0.033810,-0.224657,-10.923535,217.985392,15.103806,-10.797150,1.000000,1.000000,
201711209,218.510581,18.121941,3,0.295166,-0.057312,0.023376,-0.953430,0.009982,0.090860,-0.684674,-0.051647,-0.069474,-10.489438,218.245490,15.050259,-10.595329,1.000000,1.000000,
201720743,218.308677,18.121941,3,0.301025,-0.057251,0.023804,-0.951599,-0.071505,0.136586,-0.687223,0.043590,-0.065816,-10.504071,218.400338,14.957384,-10.535476,1.000000,1.000000,
201730459,219.117942,18.121941,3,0.307068,-0.057190,0.024231,-0.949646,-0.053184,0.227833,-1.107949,0.027487,-0.142109,-10.927206,218.679433,14.932623,-10.792397,1.000000,1.000000,
201741487,219.117942,18.121941,3,0.313049,-0.057129,0.024658,-0.947693,0.138309,0.206499,-0.804411,-0.093553,-0.232385,-10.607526,218.925581,14.865067,-10.671144,1.000000,1.000000,
201750840,218.822410,18.126482,3,0.319031,-0.057068,0.025085,-0.945679,0.230258,0.166422,-0.881132,-0.193766,-0.261223,-10.672951,219.044825,14.753359,-10.672329,1.000000,1.000000,
201760708,219.024345,18.126482,3,0.324890,-0.056885,0.025452,-0.943665,-0.019871,0.158384,-1.004384,-0.014988,-0.098923,-10.817654,219.186045,14.644291,-10.767644,1.000000,1.000000,
201771457,219.336173,18.131023,3,0.330750,-0.056824,0.025879,-0.941650,0.116720,-0.059458,-0.496873,-0.194257,-0.017009,-10.283130,219.370994,14.550606,-10.449865,1.000000,1.000000,
201781051,219.429252,18.126482,3,0.336548,-0.056763,0.026245,-0.939575,-0.019877,0.123404,-0.814708,-0.014570,-0.069023,-10.616706,219.521006,14.455396,-10.559291,1.000000,1.000000,
201790781,220.036643,18.126482,3,0.342285,-0.056641,0.026672,-0.937500,0.173158,0.267122,-0.868975,-0.070081,-0.307162,-10.667328,219.757667,14.410272,-10.630147,1.000000,1.000000,
201801836,219.226798,18.126482,3,0.347961,-0.056580,0.027039,-0.935425,0.201129,-0.014279,-0.541258,-0.230708,-0.115448,-10.314911,219.816937,14.236012,-10.423396,1.000000,1.000000,
201811120,220.130241,18.121941,3,0.353638,-0.056458,0.027405,-0.933289,-0.167581,0.196499,-1.083913,0.115071,-0.023711,-10.904426,220.007293,14.170736,-10.738887,1.000000,1.000000,
201820985,220.441612,18.126482,3,0.359070,-0.056396,0.027771,-0.931213,0.244645,0.202690,-0.746759,-0.143413,-0.306007,-10.535535,220.227880,14.116138,-10.605513,1.000000,1.000000,
201831733,220.332725,18.121941,3,0.364502,-0.056335,0.028137,-0.929077,0.085145,0.089609,-0.508797,-0.071758,-0.117671,-10.302842,220.398651,14.017188,-10.407000,1.000000,1.000000,
201841328,220.145500,18.131023,3,0.369873,-0.056213,0.028564,-0.926941,-0.061361,0.289552,-0.906539,0.120981,-0.155502,-10.728783,220.485226,13.885055,-10.618049,1.000000,1.000000,
201852228,220.534690,18.121941,3,0.375305,-0.056091,0.028931,-0.924744,0.181740,0.104494,-0.550847,-0.133644,-0.193028,-10.338645,220.645236,13.777895,-10.434797,1.000000,1.000000,
201861632,221.033805,18.117400,3,0.380859,-0.056030,0.029297,-0.922485,-0.095365,-0.081178,-0.491789,-0.059859,0.132915,-10.284982,220.847148,13.726181,-10.336536,1.000000,1.000000,
201871223,220.534690,18.121941,3,0.386414,-0.055908,0.029602,-0.920166,-0.097303,0.253428,-0.902976,0.125660,-0.095490,-10.725701,220.919796,13.587658,-10.591779,1.000000,1.000000,
201882317,221.344657,18.121941,3,0.392029,-0.055725,0.029968,-0.917786,0.102525,0.102027,-0.441292,-0.059253,-0.136185,-10.237347,221.149486,13.521954,-10.359316,1.000000,1.000000,
201891833,221.452995,18.126482,3,0.397583,-0.055603,0.030334,-0.915405,-0.016741,-0.084354,-0.532057,-0.122806,0.079980,-10.318476,221.334551,13.458825,-10.332529,1.000000,1.000000,
201901542,220.643546,18.126482,3,0.403137,-0.055420,0.030701,-0.912964,0.206224,0.230234,-0.925393,-0.096971,-0.298863,-10.722655,221.335335,13.275858,-10.588403,1.000000,1.000000,
201912314,221.547141,18.121941,3,0.408630,-0.055298,0.031067,-0.910461,0.168565,-0.007534,-0.354553,-0.172126,-0.118044,-10.135749,221.517437,13.190534,-10.291521,1.000000,1.000000,
201921744,221.547141,18.121941,3,0.414246,-0.055115,0.031372,-0.907959,-0.078149,-0.035392,-0.594163,-0.058691,0.088101,-10.389335,221.646920,13.095946,-10.355674,1.000000,1.000000,
201931418,221.656028,18.126482,3,0.419739,-0.054932,0.031738,-0.905457,0.010686,0.328431,-0.743785,0.141758,-0.211399,-10.569135,221.774812,12.994729,-10.495677,1.000000,1.000000,
201942362,221.952171,18.121941,3,0.425049,-0.054749,0.032043,-0.902954,0.196491,0.011340,-0.376215,-0.166633,-0.153990,-10.158705,221.949639,12.903430,-10.274667,1.000000,1.000000,
201951861,221.749137,18.121941,3,0.430298,-0.054565,0.032349,-0.900452,0.219275,0.040375,-0.752511,-0.201366,-0.186990,-10.534005,222.034172,12.780219,-10.444759,1.000000,1.000000,
201961754,222.371909,18.131023,3,0.435547,-0.054382,0.032715,-0.897888,-0.024839,0.261358,-0.600036,0.138295,-0.141315,-10.423061,222.223319,12.715499,-10.430526,1.000000,1.000000,
201972477,222.154136,18.121941,3,0.440735,-0.054199,0.033020,-0.895386,0.090955,0.005317,-0.433061,-0.115056,-0.070458,-10.221689,222.346133,12.597981,-10.293557,1.000000,1.000000,
201982063,222.559165,18.121941,3,0.445923,-0.054016,0.033386,-0.892822,0.095807,-0.000796,-0.717687,-0.155312,-0.066919,-10.503556,222.506303,12.521731,-10.431288,1.000000,1.000000,
201992701,222.761711,18.121941,3,0.451111,-0.053833,0.033752,-0.890198,0.022977,0.131316,-0.481821,0.026337,-0.088343,-10.289246,222.686770,12.441316,-10.338126,1.000000,1.000000,
202002180,222.855338,18.117400,3,0.456238,-0.053711,0.034058,-0.887573,0.130104,0.037096,-0.623075,-0.126127,-0.118512,-10.412722,222.835801,12.362000,-10.387051,1.000000,1.000000,
202011944,223.680198,18.126482,3,0.461304,-0.053589,0.034363,-0.884949,0.126402,0.106564,-0.756588,-0.086413,-0.162915,-10.553040,223.114052,12.355012,-10.495915,1.000000,1.000000,
202023032,223.477683,18.126482,3,0.466309,-0.053528,0.034729,-0.882324,0.109343,-0.007570,-0.294657,-0.109175,-0.089734,-10.083937,223.318544,12.284187,-10.225710,1.000000,1.000000,
202032529,222.964225,18.121941,3,0.471252,-0.053406,0.035034,-0.879639,0.028200,0.076361,-0.526474,-0.029448,-0.061617,-10.327702,223.368360,12.145113,-10.292605,1.000000,1.000000,
202042272,223.462425,18.117400,3,0.476196,-0.053284,0.035400,-0.877014,0.232777,0.085668,-0.609046,-0.139955,-0.236458,-10.399043,223.503803,12.054527,-10.362414,1.000000,1.000000,
202053030,223.882743,18.126482,3,0.481079,-0.053223,0.035706,-0.874329,-0.068570,0.024883,-0.274951,0.016184,0.045174,-10.079309,223.703879,11.989008,-10.176733,1.000000,1.000000,
202062473,224.084770,18.126482,3,0.485840,-0.053162,0.036072,-0.871704,0.020384,-0.036944,-0.674193,-0.132602,0.006853,-10.463550,223.887945,11.933947,-10.364845,1.000000,1.000000,
202072220,223.882743,18.126482,3,0.490540,-0.053101,0.036438,-0.869019,0.135103,0.210843,-0.617960,0.027176,-0.220429,-10.430437,224.002793,11.831690,-10.407865,1.000000,1.000000,
202083208,223.788596,18.131023,3,0.495239,-0.053040,0.036743,-0.866394,0.072432,-0.035475,-0.272104,-0.111345,-0.040507,-10.062047,224.092096,11.696752,-10.181055,1.000000,1.000000,
202092743,224.178947,18.121941,3,0.499939,-0.052979,0.037109,-0.863647,0.177373,-0.080696,-0.535360,-0.234014,-0.106880,-10.312745,224.219418,11.608386,-10.267426,1.000000,1.000000,
202102561,224.489890,18.126482,3,0.504639,-0.052917,0.037476,-0.860901,0.140236,0.120101,-0.463039,-0.030202,-0.174999,-10.267432,224.383530,11.538407,-10.267429,1.000000,1.000000,
202113153,224.084770,18.126482,3,0.509399,-0.052856,0.037842,-0.858093,0.073609,-0.059169,-0.221001,-0.119541,-0.032927,-10.010517,224.449249,11.398392,-10.098929,1.000000,1.000000,
202122718,224.193687,18.131023,3,0.514099,-0.052856,0.038208,-0.855225,0.068865,0.087671,-0.704978,-0.050416,-0.093508,-10.508873,224.509918,11.268436,-10.367800,1.000000,1.000000,
202132719,224.178947,18.121941,3,0.518738,-0.052795,0.038574,-0.852417,0.119233,0.142976,-0.484278,0.006913,-0.165453,-10.295026,224.560144,11.127859,-10.320071,1.000000,1.000000,
202143724,224.692985,18.126482,3,0.523315,-0.052795,0.038940,-0.849609,0.001894,-0.129803,-0.233671,-0.151126,0.050492,-10.019647,224.706895,11.032577,-10.123032,1.000000,1.000000,
202153211,224.396781,18.131023,3,0.527832,-0.052734,0.039307,-0.846802,0.138980,0.177968,-0.693920,-0.004631,-0.199691,-10.506390,224.752971,10.896863,-10.374466,1.000000,1.000000,
202164003,224.895011,18.126482,3,0.532227,-0.052734,0.039673,-0.843994,0.085472,0.022874,-0.169037,-0.048437,-0.089945,-9.970498,224.896618,10.805360,-10.109515,1.000000,1.000000,
202173476,225.502738,18.126482,3,0.536621,-0.052734,0.040100,-0.841187,0.041043,-0.098024,-0.423685,-0.170380,0.004226,-10.210822,225.112072,10.778769,-10.175957,1.000000,1.000000,
202183085,225.300163,18.126482,3,0.541077,-0.052734,0.040466,-0.838379,0.204104,0.175099,-0.488264,0.003806,-0.257930,-10.292500,225.250379,10.701349,-10.252393,1.000000,1.000000,
202194127,224.801902,18.131023,3,0.545410,-0.052734,0.040894,-0.835510,0.111152,-0.042707,-0.222952,-0.118026,-0.086764,-10.007354,225.283949,10.539921,-10.091681,1.000000,1.000000,
202203342,225.394340,18.121941,3,0.549805,-0.052795,0.041260,-0.832642,0.092894,-0.011120,-0.471041,-0.113568,-0.081720,-10.258891,225.401307,10.458061,-10.201348,1.000000,1.000000,
202213218,225.705314,18.126482,3,0.554138,-0.052795,0.041687,-0.829712,0.173738,0.202805,-0.558910,0.041494,-0.237012,-10.370848,225.560981,10.390158,-10.312517,1.000000,1.000000,
202224003,225.300163,18.126482,3,0.558472,-0.052856,0.042114,-0.826782,0.038084,-0.126241,-0.077252,-0.143412,0.007724,-9.857939,225.623645,10.254144,-10.014375,1.000000,1.000000,
202233582,226.001060,18.121941,3,0.562805,-0.052917,0.042542,-0.823792,0.154009,-0.045415,-0.469130,-0.163344,-0.126640,-10.252933,225.792072,10.199251,-10.170836,1.000000,1.000000,
202243189,225.798972,18.121941,3,0.567200,-0.052979,0.042969,-0.820740,0.124282,0.051428,-0.319459,-0.041279,-0.135246,-10.119442,225.890883,10.102824,-10.137128,1.000000,1.000000,
202254207,226.016837,18.131023,3,0.571472,-0.053040,0.043396,-0.817749,0.015143,-0.086929,-0.060512,-0.095598,0.012340,-9.849868,226.025194,10.008393,-9.948723,1.000000,1.000000,
202263718,226.109977,18.126482,3,0.575745,-0.053101,0.043884,-0.814697,0.189002,0.149468,-0.633342,-0.011243,-0.223879,-10.443238,226.135768,9.918658,-10.273060,1.000000,1.000000,
202273589,226.608848,18.121941,3,0.580017,-0.053162,0.044312,-0.811646,0.058828,0.131653,-0.285809,0.064544,-0.097300,-10.102472,226.321755,9.872804,-10.161175,1.000000,1.000000,
202284339,226.421501,18.131023,3,0.584290,-0.053223,0.044800,-0.808594,0.000294,-0.110141,-0.235284,-0.136467,0.036036,-10.023038,226.445995,9.776340,-10.070575,1.000000,1.000000,
202293869,227.122978,18.126482,3,0.588501,-0.053284,0.045288,-0.805481,0.169833,0.004559,-0.503024,-0.119983,-0.166574,-10.298760,226.665479,9.756057,-10.220231,1.000000,1.000000,
202303583,226.936149,18.135564,3,0.592651,-0.053406,0.045715,-0.802368,0.088842,-0.014838,-0.185609,-0.067452,-0.087369,-9.975654,226.810456,9.689977,-10.059819,1.000000,1.000000,
202314428,226.624107,18.131023,3,0.596741,-0.053467,0.046204,-0.799316,-0.007922,-0.031336,-0.123762,-0.045898,0.010537,-9.916235,226.880072,9.561287,-9.965648,1.000000,1.000000,
202323900,227.029319,18.131023,3,0.600830,-0.053589,0.046753,-0.796204,0.189503,0.119325,-0.503054,-0.011306,-0.215158,-10.307884,226.998109,9.480704,-10.190109,1.000000,1.000000,
202334972,227.122978,18.126482,3,0.604797,-0.053711,0.047241,-0.793152,0.090059,-0.055619,-0.044617,-0.085496,-0.076225,-9.833839,227.125882,9.385860,-9.956442,1.000000,1.000000,
202344347,226.827232,18.131023,3,0.608826,-0.053833,0.047729,-0.790039,0.070871,-0.032900,-0.183827,-0.078345,-0.061893,-9.976499,227.157483,9.257713,-9.969598,1.000000,1.000000,
202354062,227.138236,18.135564,3,0.612793,-0.053894,0.048279,-0.786926,0.139059,0.143794,-0.514142,0.027512,-0.165708,-10.327890,227.243316,9.155172,-10.204591,1.000000,1.000000,
202365055,227.325584,18.126482,3,0.616821,-0.054016,0.048828,-0.783752,0.012781,-0.074523,0.026959,-0.076440,-0.003706,-9.765553,227.358795,9.056960,-9.916639,1.000000,1.000000,
202374495,227.824516,18.121941,3,0.620789,-0.054138,0.049438,-0.780579,0.107664,0.046266,-0.476047,-0.056035,-0.116014,-10.279533,227.531058,9.013587,-10.154648,1.000000,1.000000,
202384118,227.512412,18.117400,3,0.624695,-0.054260,0.049988,-0.777344,0.068425,-0.021300,-0.086459,-0.054234,-0.064622,-9.876656,227.613860,8.916437,-9.972322,1.000000,1.000000,
202395162,227.138236,18.135564,3,0.628662,-0.054382,0.050598,-0.774109,0.156020,-0.131006,-0.137655,-0.186541,-0.124581,-9.910689,227.622662,8.753156,-9.931901,1.000000,1.000000,
202404642,227.933463,18.126482,3,0.632507,-0.054504,0.051147,-0.770935,0.086492,0.067528,-0.477491,-0.032387,-0.100886,-10.278522,227.763381,8.691448,-10.159237,1.000000,1.000000,
202414351,227.933463,18.126482,3,0.636353,-0.054626,0.051758,-0.767700,0.139216,0.075446,-0.154586,0.023015,-0.155428,-9.962411,227.879145,8.614112,-10.030145,1.000000,1.000000,
202425110,227.637168,18.131023,3,0.640198,-0.054749,0.052368,-0.764465,0.076889,-0.132667,-0.037998,-0.150757,-0.054987,-9.818532,227.925954,8.480993,-9.891355,1.000000,1.000000,
202434592,228.540824,18.126482,3,0.644043,-0.054871,0.052979,-0.761169,0.144192,0.053053,-0.359221,-0.030070,-0.146664,-10.164383,228.121047,8.455185,-10.070423,1.000000,1.000000,
202444395,228.135551,18.126482,3,0.647827,-0.054993,0.053589,-0.757874,0.086227,-0.004851,-0.068444,-0.034630,-0.089303,-9.870436,228.206182,8.360071,-9.939258,1.000000,1.000000,
202455485,228.633994,18.121941,3,0.651611,-0.055115,0.054199,-0.754639,0.015650,-0.082092,-0.119900,-0.106290,-0.004645,-9.901928,228.378407,8.298654,-9.914773,1.000000,1.000000,
202464964,228.338737,18.126482,3,0.655273,-0.055298,0.054871,-0.751343,0.188827,0.112875,-0.423869,0.009994,-0.206466,-10.231664,228.449164,8.196960,-10.122612,1.000000,1.000000,
202474706,228.447135,18.131023,3,0.658997,-0.055420,0.055542,-0.748047,0.121577,0.025629,-0.002720,0.008552,-0.128893,-9.806089,228.528187,8.101211,-9.915015,1.000000,1.000000,
202485466,229.054557,18.131023,3,0.662720,-0.055542,0.056213,-0.744690,0.048267,0.009637,-0.206679,-0.030945,-0.047237,-10.007279,228.713345,8.053267,-9.975526,1.000000,1.000000,
202494945,229.257713,18.131023,3,0.666321,-0.055664,0.056885,-0.741394,0.143093,0.042572,-0.230546,-0.014682,-0.149914,-10.036900,228.891177,8.020734,-10.015777,1.000000,1.000000,
202504703,228.945579,18.126482,3,0.669861,-0.055786,0.057617,-0.738098,0.085297,-0.013719,0.040435,-0.022221,-0.083821,-9.762466,228.979172,7.931658,-9.849638,1.000000,1.000000,
202515683,228.852439,18.131023,3,0.673462,-0.055908,0.058289,-0.734802,0.072308,-0.019195,-0.352095,-0.089189,-0.071905,-10.140812,229.041906,7.806095,-10.040611,1.000000,1.000000,
202525198,228.743461,18.126482,3,0.676941,-0.056030,0.059021,-0.731567,0.158455,0.105601,-0.304839,0.042695,-0.163326,-10.117478,229.059818,7.675394,-10.091027,1.000000,1.000000,
202535024,228.338737,18.126482,3,0.680359,-0.056152,0.059692,-0.728271,0.054956,-0.118660,0.049641,-0.113937,-0.052804,-9.733082,228.999788,7.497602,-9.856265,1.000000,1.000000,
202545805,229.054557,18.131023,3,0.683899,-0.056274,0.060425,-0.724915,0.110352,-0.032876,-0.223758,-0.078890,-0.105371,-10.018534,229.090287,7.395862,-9.962692,1.000000,1.000000,
202555210,229.553031,18.126482,3,0.687317,-0.056396,0.061157,-0.721558,0.102767,0.034486,-0.091634,0.008532,-0.096690,-9.901130,229.246074,7.356051,-9.922314,1.000000,1.000000,
202566102,229.553031,18.126482,3,0.690735,-0.056519,0.061829,-0.718201,0.068250,-0.057893,0.123014,-0.044277,-0.065569,-9.665968,229.383127,7.285541,-9.754183,1.000000,1.000000,
202575439,229.663047,18.131023,3,0.694153,-0.056641,0.062561,-0.714844,0.131051,0.207125,-0.332528,0.137567,-0.125455,-10.161717,229.503120,7.222820,-10.021471,1.000000,1.000000,
202585328,229.257713,18.131023,3,0.697571,-0.056763,0.063293,-0.711487,0.109455,-0.093812,0.164686,-0.065706,-0.105735,-9.624488,229.528153,7.099716,-9.761103,1.000000,1.000000,
202596385,230.161552,18.126482,3,0.700928,-0.056946,0.064026,-0.708069,0.128492,-0.013202,-0.245335,-0.057654,-0.116358,-10.044265,229.724667,7.060638,-9.946818,1.000000,1.000000,
202605813,229.756217,18.126482,3,0.704224,-0.057068,0.064758,-0.704712,0.104711,0.053029,-0.319290,-0.005885,-0.095545,-10.130270,229.796686,6.968705,-10.067138,1.000000,1.000000,
202615386,229.756217,18.126482,3,0.707520,-0.057251,0.065491,-0.701294,0.050741,-0.089010,0.165194,-0.062520,-0.052143,-9.620143,229.855400,6.872034,-9.773968,1.000000,1.000000,
202626412,229.553031,18.126482,3,0.710815,-0.057312,0.066223,-0.697876,0.131816,-0.068807,-0.162120,-0.098210,-0.122659,-9.948980,229.873936,6.728225,-9.888754,1.000000,1.000000,
202635736,229.849388,18.121941,3,0.714111,-0.057434,0.067017,-0.694458,0.135085,0.105903,-0.048932,0.092630,-0.125358,-9.870350,229.931644,6.633370,-9.876684,1.000000,1.000000,
202645601,230.473197,18.131023,3,0.717224,-0.057617,0.067810,-0.691162,-0.015821,-0.099846,0.127805,-0.085549,0.012991,-9.659889,230.097990,6.599571,-9.734493,1.000000,1.000000,
202656551,229.663047,18.131023,3,0.720398,-0.057739,0.068604,-0.687744,0.164096,0.019697,-0.209306,-0.010235,-0.160315,-10.010243,230.088189,6.440791,-9.915350,1.000000,1.000000,
202666063,230.177329,18.135564,3,0.723511,-0.057861,0.069397,-0.684387,0.101673,0.058985,-0.152635,0.034187,-0.088624,-9.962438,230.165698,6.356293,-9.946234,1.000000,1.000000,
202675649,230.566886,18.126482,3,0.726562,-0.057983,0.070251,-0.681030,0.037740,-0.164446,0.152016,-0.135793,-0.043939,-9.623599,230.301299,6.309795,-9.734626,1.000000,1.000000,
202686726,230.566886,18.126482,3,0.729614,-0.058105,0.071045,-0.677673,0.128915,-0.009171,-0.294826,-0.059289,-0.121946,-10.095494,230.420293,6.228161,-9.971307,1.000000,1.000000,
202696192,230.254722,18.121941,3,0.732605,-0.058228,0.071838,-0.674377,0.143335,-0.024970,0.119112,0.003747,-0.144999,-9.678788,230.447816,6.117549,-9.779454,1.000000,1.000000,
202705923,230.363700,18.126482,3,0.735535,-0.058350,0.072693,-0.671021,0.075621,-0.144760,0.110473,-0.121732,-0.090045,-9.666004,230.491146,6.013911,-9.705046,1.000000,1.000000,
202716671,230.878562,18.131023,3,0.738525,-0.058472,0.073547,-0.667664,0.183180,0.163800,-0.329726,0.106353,-0.153195,-10.160801,230.627723,5.948749,-10.003960,1.000000,1.000000,
202726210,231.173911,18.126482,3,0.741455,-0.058594,0.074402,-0.664307,0.046317,-0.043886,0.210653,-0.000469,-0.045134,-9.591856,230.786338,5.920137,-9.733671,1.000000,1.000000,
202735914,230.878562,18.131023,3,0.744324,-0.058716,0.075256,-0.660950,0.074026,-0.090118,-0.080815,-0.096747,-0.076236,-9.863114,230.860579,5.834905,-9.818568,1.000000,1.000000,
202746934,230.878562,18.131023,3,0.747253,-0.058838,0.076111,-0.657532,0.121752,0.062222,-0.212193,0.031448,-0.104072,-10.025026,230.927630,5.726554,-9.953978,1.000000,1.000000,
202756298,231.377128,18.126482,3,0.750183,-0.058960,0.077026,-0.654114,0.071659,-0.112692,0.196331,-0.068239,-0.082925,-9.592053,231.065037,5.688706,-9.716600,1.000000,1.000000,
202767366,230.675865,18.131023,3,0.753113,-0.059082,0.077881,-0.650635,0.126215,0.000011,-0.167763,-0.020125,-0.117612,-9.965781,231.054478,5.534295,-9.880032,1.000000,1.000000,
202776653,231.173911,18.126482,3,0.756042,-0.059143,0.078796,-0.647095,0.098642,0.099922,-0.175656,0.070543,-0.073232,-9.994409,231.127813,5.455261,-9.955048,1.000000,1.000000,
202786469,230.987541,18.135564,3,0.758911,-0.059265,0.079773,-0.643555,0.038749,-0.189752,0.222915,-0.143091,-0.064580,-9.548263,231.154659,5.345545,-9.688251,1.000000,1.000000,
202797141,230.691154,18.140105,3,0.761780,-0.059326,0.080688,-0.640076,0.080169,0.112003,-0.304162,0.053956,-0.056631,-10.118610,231.124316,5.185099,-9.970512,1.000000,1.000000,
202806666,231.688285,18.131023,3,0.764587,-0.059448,0.081604,-0.636536,0.079650,0.037205,0.134579,0.077628,-0.071795,-9.679240,231.278893,5.157783,-9.779473,1.000000,1.000000,
202816384,231.377128,18.126482,3,0.767456,-0.059509,0.082581,-0.632996,0.074866,-0.117036,0.009880,-0.097715,-0.092192,-9.774131,231.346942,5.073962,-9.775969,1.000000,1.000000,
202827511,231.579307,18.126482,3,0.770264,-0.059631,0.083496,-0.629395,0.122000,0.029660,-0.052211,0.038908,-0.107944,-9.869362,231.446300,4.990458,-9.837222,1.000000,1.000000,
202836857,231.688285,18.131023,3,0.773071,-0.059692,0.084473,-0.625793,0.029901,-0.099503,0.313834,-0.026912,-0.046728,-9.473985,231.537871,4.930025,-9.598985,1.000000,1.000000,
202846736,231.282890,18.131023,3,0.775879,-0.059753,0.085510,-0.622192,0.095029,-0.112993,-0.059576,-0.102670,-0.115231,-9.844152,231.538351,4.803776,-9.759783,1.000000,1.000000,
202857511,231.486106,18.131023,3,0.778687,-0.059814,0.086487,-0.618530,0.118376,0.064954,-0.005945,0.084954,-0.096013,-9.822225,231.579755,4.692033,-9.800737,1.000000,1.000000,
202867098,231.392387,18.135564,3,0.781433,-0.059875,0.087463,-0.614868,0.050149,-0.094654,0.234480,-0.032215,-0.066741,-9.554355,231.589216,4.578939,-9.639143,1.000000,1.000000,
202876826,231.189689,18.135564,3,0.784180,-0.059937,0.088501,-0.611267,0.145617,-0.003202,-0.148136,-0.002721,-0.138075,-9.957034,231.558483,4.436534,-9.847640,1.000000,1.000000,
202887920,231.392387,18.135564,3,0.786926,-0.059998,0.089478,-0.607605,0.082513,-0.005344,0.177396,0.051436,-0.078684,-9.628217,231.576010,4.310797,-9.703728,1.000000,1.000000,
202897444,231.673545,18.121941,3,0.789612,-0.060059,0.090515,-0.603882,0.074691,-0.153628,0.219352,-0.079699,-0.115815,-9.560780,231.634912,4.231075,-9.609972,1.000000,1.000000,
202907177,232.608634,18.135564,3,0.792297,-0.060120,0.091553,-0.600220,0.127985,-0.018039,-0.185947,-0.026639,-0.121127,-9.991657,231.857916,4.245055,-9.860304,1.000000,1.000000,
202918023,231.798301,18.135564,3,0.794922,-0.060181,0.092590,-0.596619,0.062688,-0.006162,0.207259,0.054139,-0.056677,-9.599571,231.892238,4.134072,-9.689297,1.000000,1.000000,
202927354,232.795555,18.126482,3,0.797546,-0.060181,0.093628,-0.592896,0.059921,-0.211014,0.224359,-0.131582,-0.117377,-9.544844,232.099589,4.149248,-9.594551,1.000000,1.000000,
202936929,232.389610,18.126482,3,0.800110,-0.060242,0.094666,-0.589233,0.139554,0.078671,-0.194178,0.060893,-0.100692,-10.011345,232.193119,4.086313,-9.867912,1.000000,1.000000,
202947885,232.296928,18.131023,3,0.802673,-0.060242,0.095764,-0.585571,0.056043,-0.178140,0.300318,-0.089590,-0.109748,-9.473805,232.256771,3.994036,-9.609429,1.000000,1.000000,
202957409,232.296928,18.131023,3,0.805237,-0.060303,0.096863,-0.581848,0.031513,-0.049205,-0.063906,-0.057832,-0.045313,-9.858213,232.301871,3.904677,-9.772599,1.000000,1.000000,
202967304,232.593376,18.126482,3,0.807800,-0.060364,0.097961,-0.578125,0.120568,0.050935,-0.073620,0.060466,-0.091626,-9.890766,232.394585,3.839933,-9.850100,1.000000,1.000000,
202978090,232.686027,18.121941,3,0.810303,-0.060364,0.099060,-0.574463,-0.008565,-0.089853,0.234987,-0.036969,-0.023590,-9.554031,232.490037,3.769839,-9.655916,1.000000,1.000000,
202987627,232.000480,18.135564,3,0.812744,-0.060425,0.100159,-0.570740,0.073688,-0.093343,-0.041223,-0.073010,-0.101850,-9.824801,232.433846,3.619747,-9.766685,1.000000,1.000000,
202998331,232.810844,18.135564,3,0.815186,-0.060425,0.101257,-0.567078,0.046148,-0.045498,0.230449,0.024357,-0.057334,-9.572371,232.542663,3.560138,-9.639239,1.000000,1.000000,
203007776,232.702354,18.131023,3,0.817627,-0.060425,0.102417,-0.563354,0.074697,-0.118648,0.029676,-0.075105,-0.108697,-9.750183,232.605758,3.486415,-9.712003,1.000000,1.000000,
203017537,232.296928,18.131023,3,0.820068,-0.060486,0.103516,-0.559570,0.117706,0.093484,-0.116437,0.091069,-0.075620,-9.945229,232.581496,3.354207,-9.864970,1.000000,1.000000,
203028647,232.499107,18.131023,3,0.822449,-0.060486,0.104675,-0.555847,0.073676,-0.163303,0.338129,-0.046817,-0.129518,-9.438751,232.602766,3.239814,-9.585427,1.000000,1.000000,
203038109,233.014091,18.135564,3,0.824829,-0.060486,0.105835,-0.552124,0.112239,-0.102187,0.027726,-0.049230,-0.138617,-9.762916,232.710031,3.194923,-9.701835,1.000000,1.000000,
203047868,233.309501,18.131023,3,0.827148,-0.060486,0.106995,-0.548401,0.082265,0.027218,0.017414,0.055768,-0.061446,-9.803413,232.852972,3.167645,-9.768454,1.000000,1.000000,
203058622,232.904563,18.131023,3,0.829468,-0.060486,0.108215,-0.544617,0.014962,-0.158502,0.338637,-0.061570,-0.082966,-9.437808,232.896166,3.071896,-9.551593,1.000000,1.000000,
203068072,232.608634,18.135564,3,0.831787,-0.060486,0.109436,-0.540833,0.145448,-0.004815,-0.128340,0.012638,-0.132168,-9.944784,232.870884,2.944697,-9.809476,1.000000,1.000000,
203077822,232.702354,18.131023,3,0.834106,-0.060486,0.110596,-0.537048,0.043708,0.001082,0.138142,0.049339,-0.041826,-9.672311,232.867597,2.831241,-9.719514,1.000000,1.000000,
203088879,233.014091,18.135564,3,0.836304,-0.060425,0.111816,-0.533325,0.018000,-0.164458,0.171981,-0.092952,-0.087780,-9.596277,232.925754,2.741649,-9.638686,1.000000,1.000000,
203098345,232.998283,18.126482,3,0.838562,-0.060425,0.113037,-0.529541,0.105798,-0.006451,-0.068613,0.014409,-0.099062,-9.878680,232.964838,2.656415,-9.796090,1.000000,1.000000,
203108181,232.810844,18.135564,3,0.840759,-0.060425,0.114258,-0.525818,0.047918,-0.063548,0.212265,0.016972,-0.076466,-9.583723,232.961682,2.544604,-9.656806,1.000000,1.000000,
203118723,233.809226,18.126482,3,0.842896,-0.060364,0.115479,-0.522034,0.096032,-0.173279,0.200999,-0.056946,-0.166410,-9.582862,233.146682,2.539783,-9.608305,1.000000,1.000000,
203128278,232.998283,18.126482,3,0.845093,-0.060364,0.116760,-0.518250,0.085134,0.019649,-0.129445,0.015355,-0.066412,-9.938106,233.142693,2.427724,-9.824612,1.000000,1.000000,
203138316,233.107292,18.131023,3,0.847229,-0.060303,0.118042,-0.514465,0.064119,-0.027437,0.228668,0.061349,-0.072843,-9.585673,233.159963,2.327464,-9.667900,1.000000,1.000000,
203149379,233.216270,18.135564,3,0.849304,-0.060242,0.119263,-0.510742,0.059250,-0.182484,0.113867,-0.105622,-0.141675,-9.655771,233.195669,2.227035,-9.659944,1.000000,1.000000,
203158860,233.309501,18.131023,3,0.851379,-0.060181,0.120544,-0.506958,0.139554,0.078671,-0.194178,0.073965,-0.078739,-10.029557,233.237642,2.144981,-9.902361,1.000000,1.000000,
203168445,233.107292,18.131023,3,0.853455,-0.060120,0.121826,-0.503174,0.053767,-0.164927,0.377891,-0.021612,-0.133902,-9.406193,233.233387,2.039972,-9.576940,1.000000,1.000000,
203179538,233.418479,18.135564,3,0.855530,-0.060059,0.123108,-0.499329,0.033953,-0.095785,0.028402,-0.060798,-0.072784,-9.752590,233.290075,1.952843,-9.692142,1.000000,1.000000,
203188864,232.514915,18.140105,3,0.857544,-0.059998,0.124451,-0.495544,0.140303,0.015967,0.096091,0.095219,-0.111097,-9.733768,233.162657,1.772408,-9.719447,1.000000,1.000000,
203198741,233.418479,18.135564,3,0.859558,-0.059937,0.125793,-0.491699,0.029732,-0.101116,0.333630,0.019624,-0.083653,-9.460901,233.227605,1.708071,-9.549874,1.000000,1.000000,
203209501,233.621757,18.135564,3,0.861511,-0.059875,0.127075,-0.487976,0.118799,0.068985,-0.055436,0.094105,-0.065789,-9.882977,233.319213,1.646583,-9.768344,1.000000,1.000000,
203219022,233.309501,18.131023,3,0.863403,-0.059753,0.128418,-0.484192,0.046486,-0.042274,0.190857,0.037936,-0.060372,-9.616878,233.332642,1.553950,-9.669002,1.000000,1.000000,
203228723,233.714958,18.131023,3,0.865356,-0.059692,0.129761,-0.480408,0.075452,-0.146372,0.130269,-0.052472,-0.139348,-9.651740,233.418828,1.503834,-9.657679,1.000000,1.000000,
