Code compiled on Mar 18 2026 at 17:44:41
﻿Simulation Mode (T/F),F
Airbrakes Enabled (T/F),T
Log File Name,RF
Sim File Name (if applicable),Sim
Burnout Mass (kg),0.61
Air Density (kg/m^3),1.204
Rocket CD,0.525
Airbrake CD,0.725
Rocket Area (m^2),0.00243
Kalman Model Y STD,1
Kalman Model V STD,0.4
Kalman Model A STD,5
Kalman Measurement Y STD,5
Kalman Measurement A STD,2
Target Apogee (m),228.6
Launch Acceleration Threshold (m/s^2),40
Coast Lockout (s),1.75
KP (1/s),0.24
Altimeter Lockout (s),60
Control Max Velocity (dep/s),2

Calibration point: 246.900903
Time (us),Altitude AGL (m),Temperature (deg C),Mode,IMU Quat W,IMU Quat X,IMU Quat Y,IMU Quat Z,IMU Raw Local Acceleration X,IMU Raw Local Acceleration Y,IMU Raw Local Acceleration Z,IMU Global Acceleration x,IMU Global Acceleration y,IMU Global Acceleration z,State Estimation y,State Estimation v,State Estimation a,Commanded servo deployment,Real servo deployment,
150651482,0.742713,23.264851,1,0.807007,-0.017822,0.005005,-0.590271,0.167739,-1.198124,10.596533,-0.779432,-0.286659,0.836354,0.283203,0.128028,0.571547,0.000000,0.000000,
150661118,0.219016,23.251239,2,0.807007,-0.017822,0.005005,-0.590271,0.936278,-8.078324,91.682074,-4.739017,-1.247056,82.114846,0.279604,0.914653,54.053256,0.000000,0.000000,
150672051,0.033133,23.260314,2,0.806946,-0.017822,0.005005,-0.590332,-1.433251,-5.984186,93.598711,-3.406508,1.688789,83.926831,0.249626,1.789584,73.646402,0.000000,0.000000,
150681772,0.033133,23.260314,2,0.806702,-0.017883,0.004883,-0.590637,0.431626,-7.445855,97.122156,-4.155649,-0.417955,87.522485,0.231195,2.617399,82.747292,0.000000,0.000000,
150692554,0.326636,23.255776,2,0.807068,-0.018433,0.004761,-0.590149,1.134522,-7.564161,100.099535,-3.916797,-0.964817,90.513740,0.282927,3.602856,87.841064,0.000000,0.000000,
150702406,0.126334,23.255776,2,0.807800,-0.018799,0.004700,-0.589172,1.598743,-7.393026,99.321231,-3.593784,-1.313852,89.738143,0.293461,4.467845,89.085298,0.000000,0.000000,
150712078,0.619651,23.251239,2,0.807861,-0.019104,0.004944,-0.588989,0.139375,-8.380315,101.588504,-4.832035,-0.150325,92.021271,0.402342,5.398789,91.010913,0.000000,0.000000,
150723060,0.712332,23.246702,2,0.807556,-0.019470,0.005554,-0.589417,-0.604140,-22.808701,99.813133,-18.706411,-3.890212,90.791598,0.525317,6.434208,90.867072,0.000000,0.000000,
150732703,0.512015,23.246702,2,0.807068,-0.019836,0.006226,-0.590088,-2.102599,-17.643707,101.254200,-14.056395,-0.843936,92.034902,0.589198,7.320397,91.633016,0.000000,0.000000,
150742593,0.219016,23.251239,2,0.806519,-0.020203,0.006775,-0.590820,0.154854,-9.004882,102.682212,-4.964548,-0.343219,93.158013,0.596700,8.195677,92.633213,0.000000,0.000000,
150753242,0.697409,23.237627,2,0.805786,-0.020020,0.006775,-0.591797,0.035941,-6.666021,102.902153,-2.786145,0.462651,93.280704,0.708211,9.201347,93.057883,0.000000,0.000000,
150762815,0.619651,23.251239,2,0.805176,-0.019836,0.006897,-0.592651,-1.255021,-8.620188,103.192932,-5.027939,1.090483,93.633667,0.783975,10.086759,93.435521,0.000000,0.000000,
150772630,-0.073968,23.255776,2,0.804260,-0.020020,0.007202,-0.593933,-0.100042,-12.433804,102.293408,-8.293038,-1.148969,92.907972,0.726345,10.892274,93.089514,0.000000,0.000000,
150783383,1.113486,23.246702,2,0.802856,-0.019836,0.007141,-0.595825,1.345964,-11.507056,103.137553,-6.997588,-2.218946,93.728313,0.921628,11.947697,93.508484,0.000000,0.000000,
150793044,0.712332,23.246702,2,0.801880,-0.019714,0.007324,-0.597168,0.385668,-9.321613,102.646041,-5.195263,-0.694991,93.137675,1.002067,12.821239,93.265281,0.000000,0.000000,
150803911,1.808219,23.242164,2,0.799377,-0.019653,0.007141,-0.600403,-0.489537,-9.728587,102.339579,-5.887908,0.091468,92.834846,1.298326,13.930037,92.982976,0.000000,0.000000,
150813341,1.515174,23.246702,2,0.796448,-0.019592,0.007202,-0.604370,0.235465,-10.731125,101.654971,-6.689225,-0.832309,92.199202,1.474491,14.826408,92.468924,0.000000,0.000000,
150822960,1.314337,23.246702,2,0.793213,-0.019348,0.007202,-0.608582,-0.492570,-7.973749,102.586698,-4.239962,0.653748,93.009942,1.591366,15.701294,92.823760,0.000000,0.000000,
150833737,1.515174,23.246702,2,0.789612,-0.019043,0.007141,-0.613281,-0.700358,-8.013693,103.045398,-4.362037,0.886832,93.464895,1.751726,16.698980,93.244260,0.000000,0.000000,
150843189,1.823142,23.251239,2,0.786011,-0.018677,0.007263,-0.617859,-3.709587,-3.787472,100.312069,-1.098605,4.750397,90.535835,1.926895,17.562733,91.467889,0.000000,0.000000,
150853002,2.101248,23.237627,2,0.782288,-0.018677,0.007507,-0.622559,-0.486189,-3.331715,99.319998,0.115618,1.696320,89.564814,2.136192,18.463053,90.219722,0.000000,0.000000,
150864043,2.517401,23.246702,2,0.778809,-0.018433,0.007690,-0.626953,-0.777834,-7.300206,102.348260,-3.705368,1.145009,92.740444,2.417381,19.532470,91.872986,0.000000,0.000000,
150873513,3.212210,23.242164,2,0.776978,-0.018188,0.007446,-0.629211,-0.472206,-8.496370,100.899879,-4.934761,0.602308,91.339114,2.755706,20.496165,91.522840,0.000000,0.000000,
150883219,2.717749,23.246702,2,0.775879,-0.019226,0.007568,-0.630554,-0.169457,-9.380536,100.496998,-5.598777,0.287045,90.980359,2.951780,21.374534,91.167044,0.000000,0.000000,
150894268,3.212210,23.242164,2,0.774170,-0.020081,0.007751,-0.632629,0.712520,-9.419221,101.499049,-5.284825,-0.411448,92.000756,3.242498,22.422427,91.713851,0.000000,0.000000,
150903614,3.612952,23.242164,2,0.773376,-0.021301,0.008484,-0.633545,-0.311358,-5.680743,100.584318,-1.598247,1.415247,90.922615,3.525560,23.317872,91.194905,0.000000,0.000000,
150913360,4.121360,23.246702,2,0.773254,-0.021301,0.008606,-0.633667,-0.841110,-9.812238,100.995483,-5.715743,1.120706,91.507756,3.868979,24.282540,91.400097,0.000000,0.000000,
150924248,4.214087,23.242164,2,0.773193,-0.021790,0.009216,-0.633728,-0.917996,-7.481026,99.141354,-3.362265,1.615578,89.556818,4.203385,25.300302,90.191149,0.000000,0.000000,
150933714,4.414481,23.242164,2,0.773010,-0.022156,0.010071,-0.633972,-0.118858,-7.861273,99.779938,-3.368606,0.723010,90.228371,4.486555,26.180484,90.215563,0.000000,0.000000,
150943415,5.432944,23.251239,2,0.772949,-0.023071,0.011414,-0.633972,-0.648514,-8.868587,99.822844,-4.133367,1.017339,90.324818,4.922352,27.172054,90.287224,0.000000,0.000000,
150954476,5.525687,23.246702,2,0.773010,-0.023926,0.013123,-0.633850,-0.838843,-7.385045,97.893602,-2.445557,1.363182,88.331202,5.341479,28.223024,89.004332,0.000000,0.000000,
150963818,5.726096,23.246702,2,0.773132,-0.024963,0.015137,-0.633545,-0.588874,-6.605482,98.306485,-1.177216,1.190087,88.719388,5.681206,29.099192,88.817448,0.000000,0.000000,
150973664,6.220191,23.242164,2,0.773438,-0.026306,0.017578,-0.633118,-0.446247,-8.157663,98.639945,-2.108830,0.647896,89.154077,6.073175,30.042473,89.038235,0.000000,0.000000,
150984300,7.115683,23.237627,2,0.773743,-0.027649,0.020325,-0.632507,-0.788068,-7.168701,97.216218,-0.708173,1.005684,87.672556,6.593259,31.101521,88.142533,0.000000,0.000000,
150993936,7.022940,23.242164,2,0.774231,-0.029053,0.023315,-0.631775,-0.161586,-7.089001,95.853241,0.023263,0.222887,86.317643,6.977524,31.985430,86.945646,0.000000,0.000000,
151003666,7.717032,23.237627,2,0.774841,-0.030640,0.026672,-0.630859,-0.214998,-7.491498,96.438040,0.352625,0.034719,86.926246,7.431583,32.920894,86.932925,0.000000,0.000000,
151014748,8.427649,23.242164,2,0.775452,-0.032166,0.030212,-0.629822,-0.543952,-6.435180,95.716241,1.976224,0.349849,86.114820,7.988618,33.995651,86.396360,0.000000,0.000000,
151024070,9.230048,23.242164,2,0.776245,-0.033813,0.033997,-0.628662,-0.206565,-6.596293,94.859434,2.570140,-0.240514,85.248877,8.542212,34.942448,85.643768,0.000000,0.000000,
151033891,9.831519,23.242164,2,0.777039,-0.035400,0.037964,-0.627319,-0.355086,-6.674527,94.189996,3.170194,-0.360345,84.570563,9.131272,35.928973,84.939891,0.000000,0.000000,
151044635,10.634040,23.242164,2,0.777893,-0.037048,0.042114,-0.625916,-0.347771,-6.212911,93.758261,4.383478,-0.519764,84.059262,9.804104,37.013377,84.362320,0.000000,0.000000,
151054252,10.835059,23.242164,2,0.778870,-0.038696,0.046387,-0.624329,-0.077464,-6.459658,93.302807,4.965110,-1.106356,83.586820,10.357378,37.942849,83.853698,0.000000,0.000000,
151064032,11.730963,23.237627,2,0.779846,-0.040344,0.050781,-0.622559,-0.108018,-6.265936,92.982430,5.945715,-1.308906,83.192278,10.990070,38.922425,83.419899,0.000000,0.000000,
151075144,12.039252,23.242164,2,0.780945,-0.041992,0.055176,-0.620728,-0.125491,-5.769005,91.437386,7.046996,-1.444283,81.532468,11.624446,39.955381,82.181996,0.000000,0.000000,
151084428,13.537451,23.237627,2,0.782043,-0.043640,0.059631,-0.618835,0.020038,-5.723141,91.205237,7.924874,-1.839271,81.224898,12.357930,40.943606,81.554274,0.000000,0.000000,
151095388,13.645697,23.242164,2,0.783203,-0.045227,0.064087,-0.616821,0.138995,-5.683251,90.836381,8.759980,-2.209867,80.763944,13.053211,41.984304,81.035927,0.000000,0.000000,
151104766,15.158576,23.246702,2,0.784363,-0.046753,0.068481,-0.614746,0.138404,-5.370726,90.456501,9.798077,-2.395876,80.248204,13.845639,42.994464,80.519293,0.000000,0.000000,
151114430,16.255469,23.242164,2,0.785583,-0.048218,0.072754,-0.612549,0.238676,-5.292661,90.468111,10.679919,-2.737561,80.150970,14.716864,44.059624,80.277732,0.000000,0.000000,
151125429,16.750067,23.237627,2,0.786865,-0.049561,0.076843,-0.610291,0.234897,-4.927072,88.737199,11.456891,-2.860504,78.282468,15.587635,45.164859,78.969108,0.000000,0.000000,
151134755,17.769232,23.246702,2,0.788147,-0.050781,0.080750,-0.608032,0.375867,-4.889763,88.849870,12.235937,-3.224596,78.282861,16.421603,46.160468,78.519030,0.000000,0.000000,
151144465,18.063239,23.242164,2,0.789490,-0.051880,0.084351,-0.605713,0.378770,-5.005619,88.014122,12.601567,-3.456723,77.381358,17.181252,47.108677,77.772873,0.000000,0.000000,
151155551,19.066565,23.242164,2,0.790894,-0.052856,0.087646,-0.603333,0.365630,-4.589598,86.623193,13.282910,-3.491808,75.846222,18.061784,48.175110,76.509250,0.000000,0.000000,
151165017,19.963172,23.237627,2,0.792358,-0.053711,0.090576,-0.600891,0.563622,-4.618815,86.543930,13.801311,-3.849501,75.679064,18.877971,49.122374,75.964765,0.000000,0.000000,
151174756,21.075537,23.242164,2,0.793884,-0.054382,0.093079,-0.598450,0.587257,-4.546737,85.878976,14.156744,-3.980992,74.937309,19.772003,50.115800,75.290898,0.000000,0.000000,
151185440,21.384589,23.246702,2,0.795532,-0.054871,0.095093,-0.595947,0.584302,-4.267406,85.197177,14.611383,-3.989092,74.144664,20.614111,51.100627,74.539126,0.000000,0.000000,
151194883,22.775275,23.237627,2,0.797241,-0.055237,0.096741,-0.593323,0.674513,-4.443320,84.060361,14.496339,-4.172928,73.014898,21.505230,52.050546,73.539442,0.000000,0.000000,
151204582,23.177283,23.237627,2,0.799011,-0.055481,0.097900,-0.590698,0.721000,-4.128173,83.129074,14.804085,-4.154719,72.004049,22.326836,52.948171,72.532432,0.000000,0.000000,
151215578,24.398383,23.246702,2,0.800964,-0.055603,0.098633,-0.587952,0.593606,-4.245563,82.560866,14.660489,-4.064038,71.458926,23.301849,53.979871,71.828361,0.000000,0.000000,
151225087,24.893347,23.242164,2,0.802917,-0.055542,0.098877,-0.585205,0.560634,-4.183509,81.838644,14.583901,-3.990859,70.738688,24.116854,54.844331,71.113685,0.000000,0.000000,
151234930,25.187049,23.237627,2,0.805054,-0.055298,0.098633,-0.582336,0.600815,-4.037114,80.960824,14.502515,-3.933938,69.858521,24.860679,55.659638,70.290466,0.000000,0.000000,
151245675,26.192084,23.237627,2,0.807251,-0.054993,0.097961,-0.579468,0.475238,-4.109061,80.664035,14.242184,-3.766460,69.618025,25.712460,56.566166,69.849438,0.000000,0.000000,
151255120,27.011878,23.246702,2,0.809509,-0.054626,0.096802,-0.576538,0.262171,-3.976175,79.260451,13.824374,-3.385890,68.271688,26.493435,57.367016,68.814647,0.000000,0.000000,
151264872,27.799720,23.237627,2,0.811829,-0.054138,0.095276,-0.573547,0.016360,-4.180684,79.281276,13.337315,-3.110572,68.395998,27.300988,58.189348,68.540073,0.000000,0.000000,
151275879,27.722785,23.251239,2,0.814270,-0.053528,0.093384,-0.570435,-0.046785,-4.267559,78.159075,12.714416,-2.936724,67.383579,28.024621,58.981445,67.781566,0.000000,0.000000,
151285409,28.913428,23.242164,2,0.816711,-0.052795,0.091125,-0.567322,-0.086841,-4.486454,78.148431,12.161944,-2.834398,67.477717,28.756504,59.731557,67.582285,0.000000,0.000000,
151295233,30.026770,23.246702,2,0.819336,-0.051941,0.088562,-0.564087,-0.321408,-4.583738,76.852810,11.344981,-2.473169,66.313110,29.584624,60.534323,66.749878,0.000000,0.000000,
151305960,30.706916,23.233090,2,0.821960,-0.050964,0.085815,-0.560669,-0.065865,-4.852890,76.212686,10.647375,-2.662989,65.769199,30.448211,61.373248,66.106686,0.000000,0.000000,
151315435,31.635504,23.246702,2,0.824707,-0.049805,0.083008,-0.557190,-0.163860,-5.000388,75.155049,9.841911,-2.490144,64.830509,31.255264,62.129759,65.269687,0.000000,0.000000,
151326388,31.233161,23.246702,2,0.827576,-0.048584,0.080200,-0.553467,-0.497760,-4.711900,74.457940,9.412775,-1.965202,64.184490,31.935430,62.830586,64.557940,0.000000,0.000000,
151335634,33.320960,23.233090,2,0.830566,-0.047180,0.077454,-0.549500,-0.511335,-4.688039,73.945021,8.903314,-1.863010,63.733743,32.778957,63.586650,64.017381,0.000000,0.000000,
151345427,33.243994,23.246702,2,0.833679,-0.045837,0.074829,-0.545227,-0.609330,-4.835537,72.887383,8.134034,-1.755816,62.773642,33.491790,64.256555,63.201653,0.000000,0.000000,
151356455,33.739386,23.242164,2,0.836914,-0.044556,0.072449,-0.540649,-0.651249,-4.527032,71.417384,7.759482,-1.535281,61.323996,34.250499,64.962879,61.970157,0.000000,0.000000,
151365922,35.147223,23.242164,2,0.840332,-0.043335,0.070251,-0.535767,-0.516650,-4.883130,70.894494,7.077516,-1.765228,60.885567,35.036390,65.646690,61.258812,0.000000,0.000000,
151375514,36.245703,23.237627,2,0.843872,-0.042114,0.068359,-0.530457,-0.776534,-4.988036,70.661502,6.531609,-1.566240,60.716618,35.895523,66.372512,60.903209,0.000000,0.000000,
151386212,36.957770,23.242164,2,0.847595,-0.040894,0.066711,-0.524841,-0.727950,-4.439505,69.602624,6.604599,-1.371885,59.621336,36.808082,67.135737,60.062473,0.000000,0.000000,
151395697,37.870948,23.246702,2,0.851379,-0.039734,0.065369,-0.518921,-0.594042,-4.645045,68.310325,6.060413,-1.611066,58.378771,37.646690,67.815652,58.958190,0.000000,0.000000,
151405687,38.768653,23.242164,2,0.855286,-0.038635,0.064331,-0.512634,-0.663759,-4.654884,67.201470,5.685143,-1.601861,57.306225,38.537234,68.520446,57.874722,0.000000,0.000000,
151416541,40.177680,23.242164,2,0.859314,-0.037598,0.063660,-0.506042,-0.908556,-4.577151,66.264962,5.368613,-1.407142,56.400127,39.591827,69.326317,56.907588,0.000000,0.000000,
151426028,40.982550,23.242164,2,0.863464,-0.036682,0.063232,-0.499084,-0.619777,-4.835978,65.938014,5.153576,-1.865083,56.086430,40.512828,70.024489,56.369022,0.000000,0.000000,
151435739,41.384772,23.242164,2,0.867676,-0.035767,0.063110,-0.491760,-0.652012,-4.315852,64.597690,5.341589,-1.654216,54.700428,41.358767,70.658626,55.274647,0.000000,0.000000,
151446759,42.499945,23.246702,2,0.871948,-0.034973,0.063293,-0.484253,-0.724355,-4.385664,63.985352,5.159468,-1.727703,54.106451,42.354642,71.389385,54.508468,0.000000,0.000000,
151456126,43.691779,23.237627,2,0.876099,-0.034241,0.063721,-0.476685,-0.451052,-4.292491,63.403252,5.334424,-1.998923,53.491842,43.276407,72.050021,53.841701,0.000000,0.000000,
151465939,43.800360,23.242164,2,0.880310,-0.033630,0.064453,-0.468811,-0.397394,-3.968156,62.589046,5.594268,-1.960553,52.631775,44.084114,72.628274,53.048150,0.000000,0.000000,
151476713,45.008399,23.242164,2,0.884583,-0.033020,0.065491,-0.460632,-0.257051,-3.986244,61.133595,5.557830,-2.188686,51.166903,45.042791,73.288690,51.814302,0.000000,0.000000,
151486341,46.014838,23.242164,2,0.888855,-0.032532,0.066833,-0.452148,-0.000330,-3.960921,60.095406,5.730688,-2.489787,50.103128,45.932933,73.886363,50.692001,0.000000,0.000000,
151496074,47.316199,23.237627,2,0.893127,-0.032043,0.068359,-0.443481,-0.072270,-3.859074,59.164050,5.813458,-2.473125,49.150902,46.913583,74.527811,49.681248,0.000000,0.000000,
151507132,47.533454,23.246702,2,0.897400,-0.031555,0.069946,-0.434509,-0.158991,-3.884573,58.617052,5.854169,-2.527788,48.593366,47.856869,75.138316,48.967743,0.000000,0.000000,
151516482,48.927649,23.237627,2,0.901672,-0.031128,0.071655,-0.425354,0.204130,-3.694625,57.357090,6.231214,-2.784252,47.270519,48.762208,75.707567,47.854591,0.000000,0.000000,
151526373,49.934485,23.237627,2,0.905945,-0.030762,0.073364,-0.415771,0.259121,-3.507931,56.564153,6.500769,-2.783910,46.426637,49.732952,76.304797,46.918046,0.000000,0.000000,
151537133,50.554328,23.246702,2,0.910278,-0.030457,0.075134,-0.405945,0.575241,-3.400380,55.645986,6.863172,-3.004814,45.448221,50.710563,76.890682,45.954037,0.000000,0.000000,
151546600,52.057593,23.242164,2,0.914551,-0.030273,0.076904,-0.395874,0.634942,-3.308459,55.057461,7.102709,-3.035496,44.813542,51.693010,77.474793,45.206028,0.000000,0.000000,
151557401,52.956061,23.237627,2,0.918762,-0.030151,0.078613,-0.385681,0.728738,-3.184411,53.335323,7.195929,-3.029917,43.063149,52.769072,78.089006,43.800586,0.000000,0.000000,
151566864,53.561103,23.237627,2,0.922974,-0.030029,0.080200,-0.375244,0.705764,-2.774863,52.623331,7.563046,-2.733235,42.280386,53.658370,78.582921,42.803538,0.000000,0.000000,
151576571,54.383582,23.246702,2,0.927063,-0.030029,0.081543,-0.364746,0.504734,-2.523342,51.062238,7.497857,-2.387167,40.720289,54.558906,79.063368,41.437203,0.000000,0.000000,
151587604,55.886359,23.242164,2,0.931091,-0.030090,0.082581,-0.354065,0.442421,-2.025159,49.901139,7.729619,-1.925804,39.503414,55.682406,79.655111,40.168897,0.000000,0.000000,
151597053,57.095771,23.242164,2,0.935059,-0.030334,0.083252,-0.343262,0.080085,-1.805982,48.895692,7.534976,-1.453225,38.519888,56.701738,80.186692,39.087370,0.000000,0.000000,
151606795,58.522834,23.251239,2,0.938965,-0.030518,0.083618,-0.332336,0.019121,-1.658668,47.636001,7.429497,-1.223631,37.261265,57.825871,80.763488,37.889692,0.000000,0.000000,
151617810,59.002875,23.237627,2,0.942688,-0.030701,0.083679,-0.321472,-0.156745,-1.558145,45.880669,7.079723,-0.951993,35.542564,58.938204,81.293428,36.350289,0.000000,0.000000,
151627155,60.010688,23.237627,2,0.946350,-0.030701,0.083435,-0.310669,-0.140102,-1.469282,44.310098,6.869299,-0.827835,33.986722,59.900354,81.737605,34.800104,0.000000,0.000000,
151636736,61.236640,23.246702,2,0.949829,-0.030457,0.082947,-0.299988,-0.126769,-1.265473,41.697893,6.508014,-0.626010,31.398852,60.935135,82.194722,32.569334,0.000000,0.000000,
151647820,61.934394,23.242164,2,0.953247,-0.029846,0.082275,-0.289246,-0.501446,-0.956188,34.649724,5.091182,-0.191993,24.490212,62.034652,82.586256,27.270493,0.000000,0.000000,
151657322,63.035712,23.237627,2,0.956543,-0.028931,0.081482,-0.278564,-0.294736,-0.512148,27.620673,4.232187,-0.004813,17.504550,63.007399,82.867679,20.865320,0.000000,0.000000,
151667084,63.951178,23.242164,2,0.959717,-0.027588,0.080750,-0.267822,-0.140547,-0.070262,21.496941,3.489839,0.220964,11.408495,63.993336,83.089266,14.662887,0.000000,0.000000,
151677940,63.253821,23.246702,2,0.962769,-0.026062,0.079834,-0.256958,-0.242061,-0.029031,15.194267,2.311890,0.233995,5.219391,64.756649,83.063250,8.469189,0.000000,0.000000,
151687294,65.859015,23.237627,2,0.965759,-0.024170,0.079041,-0.245972,-0.061114,0.047086,11.843051,1.913762,0.155242,1.882639,65.740040,83.208786,4.149281,0.000000,0.000000,
151696966,65.657447,23.237627,2,0.968689,-0.021851,0.078369,-0.234680,-0.058958,0.199663,8.330956,1.379812,0.249343,-1.585060,66.529051,83.183711,0.388305,0.000000,0.000000,
151708090,66.682471,23.246702,2,0.971436,-0.019165,0.077942,-0.223206,0.099211,-0.036443,5.615527,0.967127,-0.067596,-4.274101,67.482687,83.156259,-2.669621,0.000000,0.000000,
151717565,67.381110,23.242164,2,0.974121,-0.016113,0.077698,-0.211548,0.285090,0.157428,4.485762,1.023785,0.021363,-5.424467,68.251174,83.091754,-4.476439,0.000000,0.000000,
151727319,67.692084,23.246702,2,0.976685,-0.012878,0.077576,-0.199707,0.138902,-0.164334,3.708780,0.638995,-0.225587,-6.148694,68.956534,82.966368,-5.573221,0.000000,0.000000,
151738063,68.793494,23.242164,2,0.979126,-0.009644,0.077637,-0.187744,0.371262,-0.382852,1.767283,0.471184,-0.510085,-8.090340,69.816796,82.861326,-7.224122,0.000000,0.000000,
151747497,69.895575,23.237627,2,0.981384,-0.006409,0.077759,-0.175415,0.368293,-0.593470,0.556159,0.220064,-0.691553,-9.281080,70.612767,82.782370,-8.573216,0.000000,0.000000,
151757252,70.003913,23.242164,2,0.983582,-0.003357,0.077881,-0.162842,0.048289,-0.486779,-0.067050,-0.122438,-0.478110,-9.856929,71.305738,82.615370,-9.415166,0.000000,0.000000,
151768301,70.811652,23.242164,2,0.985596,-0.000610,0.078003,-0.150085,0.242449,-0.521447,-1.138595,-0.105928,-0.544139,-10.947605,72.125225,82.437872,-10.420247,0.000000,0.000000,
151777802,71.232123,23.251239,2,0.987427,0.001831,0.078308,-0.137146,0.253075,-0.230997,-1.497151,-0.054808,-0.257925,-11.313998,72.740488,82.224521,-11.006435,0.000000,0.000000,
151787627,71.728308,23.246702,2,0.989197,0.003845,0.078674,-0.123840,0.375678,-0.404649,-2.221811,-0.089901,-0.428889,-12.049054,73.358073,81.987998,-11.690260,0.000000,0.000000,
151798357,72.131690,23.246702,2,0.990723,0.005493,0.079285,-0.110413,0.563557,-0.366330,-2.640749,0.047546,-0.409582,-12.497678,74.007199,81.711604,-12.219826,0.000000,0.000000,
151807826,73.326422,23.237627,2,0.992065,0.006775,0.080078,-0.096741,0.276869,-0.283488,-2.771004,-0.224565,-0.260847,-12.575606,74.652748,81.512230,-12.453174,0.000000,0.000000,
151818816,74.243842,23.242164,2,0.993225,0.007629,0.080994,-0.082825,0.459108,0.158904,-3.734642,-0.120937,0.195240,-13.559224,75.471047,81.316111,-13.178600,0.000000,0.000000,
151828197,74.848578,23.242164,2,0.994263,0.008057,0.081848,-0.068726,0.704332,0.392751,-3.875856,0.110680,0.406904,-13.738523,76.116540,81.113310,-13.545839,0.000000,0.000000,
151837943,74.538428,23.237627,2,0.995117,0.007996,0.082397,-0.054260,0.580669,0.437014,-4.290477,-0.088035,0.488048,-14.127648,76.610711,80.791597,-13.927436,0.000000,0.000000,
151848883,75.050330,23.242164,2,0.995728,0.007629,0.082825,-0.039429,0.505838,0.724678,-4.765437,-0.230823,0.791973,-14.582039,77.201213,80.451413,-14.356776,0.000000,0.000000,
151858373,76.464301,23.242164,2,0.996216,0.007019,0.083069,-0.024353,0.855583,0.954873,-4.731029,0.102879,1.006193,-14.602845,77.825887,80.225817,-14.518168,0.000000,0.000000,
151867930,76.573767,23.246702,2,0.996460,0.006165,0.083130,-0.008972,0.735521,1.460259,-5.331545,-0.135362,1.526911,-15.168886,78.357335,79.934939,-14.944959,0.000000,0.000000,
151879057,77.676154,23.242164,2,0.996521,0.005249,0.083008,0.006653,0.727593,1.807584,-5.419320,-0.203397,1.871705,-15.249132,79.118161,79.686791,-15.144459,0.000000,0.000000,
151888327,78.576819,23.237627,2,0.996338,0.004211,0.082642,0.022461,0.625132,2.107306,-5.423034,-0.374002,2.167443,-15.229816,79.754734,79.481736,-15.200445,0.000000,0.000000,
151898194,78.686286,23.242164,2,0.995850,0.003174,0.082092,0.038391,0.690806,2.081566,-5.765943,-0.423376,2.132381,-15.576814,80.338074,79.204160,-15.447298,0.000000,0.000000,
151909153,79.586524,23.237627,2,0.995178,0.002258,0.081360,0.054504,0.396690,2.163422,-5.404518,-0.725873,2.170546,-15.167230,81.064326,78.950910,-15.263613,0.000000,0.000000,
151918634,79.804969,23.246702,2,0.994263,0.001587,0.080444,0.070618,0.626812,2.371638,-5.690810,-0.636754,2.390960,-15.478852,81.576097,78.655813,-15.404787,0.000000,0.000000,
151928238,80.613471,23.246702,2,0.993042,0.001221,0.079407,0.086670,0.553372,2.336946,-5.785084,-0.782746,2.339457,-15.564305,82.150471,78.394424,-15.509414,0.000000,0.000000,
151939288,80.815345,23.246702,2,0.991638,0.001282,0.078186,0.102600,0.061282,2.234791,-5.464257,-1.251036,2.127095,-15.164099,82.765632,78.072753,-15.282938,0.000000,0.000000,
151948648,81.918158,23.242164,2,0.989990,0.001770,0.076721,0.118347,0.305858,2.318920,-6.025501,-1.172661,2.238479,-15.755242,83.336845,77.825406,-15.592711,0.000000,0.000000,
151958544,82.212958,23.237627,2,0.988098,0.002686,0.075134,0.134033,-0.241436,1.954345,-5.760608,-1.616660,1.741487,-15.409416,83.895739,77.542666,-15.472499,0.000000,0.000000,
151969280,83.021125,23.237627,2,0.986023,0.004028,0.073425,0.149597,-0.324098,1.694976,-5.944158,-1.681608,1.440687,-15.587432,84.563443,77.274230,-15.547883,0.000000,0.000000,
151978751,82.726294,23.242164,2,0.983643,0.005737,0.071777,0.165161,0.010604,2.032994,-6.144577,-1.534371,1.850150,-15.811964,84.950312,76.909086,-15.721094,0.000000,0.000000,
151988448,84.140784,23.242164,2,0.981018,0.007874,0.070068,0.180786,-0.537945,1.771886,-5.721177,-1.925805,1.407842,-15.317180,85.543786,76.666855,-15.456183,0.000000,0.000000,
151999434,84.452277,23.246702,2,0.978088,0.010315,0.068420,0.196350,-0.470724,1.628011,-6.162400,-1.905510,1.279628,-15.769202,86.180572,76.368133,-15.661487,0.000000,0.000000,
152008768,85.556006,23.242164,2,0.974915,0.012939,0.066895,0.211914,-0.643737,1.399677,-5.688551,-1.935533,0.991406,-15.280450,86.775707,76.152413,-15.411580,0.000000,0.000000,
152018617,85.463080,23.246702,2,0.971436,0.015686,0.065552,0.227539,-0.814118,1.266295,-5.900895,-2.081231,0.774058,-15.471051,87.279150,75.848395,-15.450590,0.000000,0.000000,
152029456,85.757971,23.242164,2,0.967651,0.018555,0.064331,0.243286,-0.937540,1.243017,-5.965858,-2.202881,0.685707,-15.517682,87.815343,75.504968,-15.494600,0.000000,0.000000,
152039092,86.472937,23.246702,2,0.963501,0.021545,0.063538,0.259094,-0.752187,0.690773,-5.568872,-1.737040,0.275611,-15.181089,88.290642,75.201639,-15.288984,0.000000,0.000000,
152048911,86.970893,23.242164,2,0.959045,0.024414,0.062988,0.274963,-0.377365,0.723563,-6.108194,-1.523061,0.493323,-15.751466,88.781048,74.893903,-15.592317,0.000000,0.000000,
152059978,87.669867,23.237627,2,0.954346,0.027161,0.062622,0.290833,-0.423358,0.615861,-5.695499,-1.467249,0.362662,-15.344345,89.400711,74.595650,-15.429684,0.000000,0.000000,
152069377,87.980933,23.242164,2,0.949280,0.029785,0.062439,0.306824,-0.335675,0.870729,-5.816372,-1.572051,0.612823,-15.447987,89.835012,74.283270,-15.441695,0.000000,0.000000,
152079124,88.091529,23.246702,2,0.943848,0.032166,0.062378,0.322876,-0.269826,0.563414,-5.919586,-1.373679,0.399967,-15.584663,90.231709,73.929093,-15.535471,0.000000,0.000000,
152090159,88.697089,23.246702,2,0.938049,0.034363,0.062317,0.339050,-0.256065,0.327938,-5.546325,-1.189353,0.210727,-15.229115,90.759002,73.583878,-15.334547,0.000000,0.000000,
152099431,89.598700,23.242164,2,0.932007,0.036316,0.062317,0.355225,-0.062731,0.491968,-5.730073,-1.192511,0.460696,-15.410338,91.223140,73.304560,-15.384262,0.000000,0.000000,
152110199,90.112921,23.246702,2,0.925537,0.038147,0.062317,0.371521,-0.223149,0.439978,-5.762585,-1.294920,0.305211,-15.433874,91.803530,73.010073,-15.416805,0.000000,0.000000,
152119505,90.112921,23.246702,2,0.918762,0.039734,0.062317,0.387756,-0.161102,0.460152,-5.480163,-1.239594,0.346093,-15.146931,92.165517,72.671157,-15.239811,0.000000,0.000000,
152129246,91.309211,23.237627,2,0.911743,0.041016,0.062256,0.403992,0.022985,0.532152,-5.833040,-1.238793,0.514786,-15.501075,92.712309,72.421423,-15.411169,0.000000,0.000000,
152140329,91.620398,23.242164,2,0.904297,0.042175,0.062073,0.420166,0.348616,0.542164,-5.573503,-1.018069,0.753304,-15.266895,93.309444,72.126848,-15.316548,0.000000,0.000000,
152149779,92.522254,23.237627,2,0.896545,0.043091,0.061890,0.436462,0.441176,0.340104,-5.449982,-0.815306,0.680627,-15.175624,93.842846,71.891274,-15.224124,0.000000,0.000000,
152159529,92.927008,23.237627,2,0.888428,0.043823,0.061584,0.452698,0.447001,0.689540,-5.813376,-1.159353,0.891618,-15.487748,94.371510,71.634383,-15.397030,0.000000,0.000000,
152170288,93.348365,23.246702,2,0.880005,0.044434,0.061218,0.468872,0.539509,0.434606,-5.400392,-0.876800,0.800992,-15.115705,94.949676,71.353996,-15.212522,0.000000,0.000000,
152179735,94.249884,23.242164,2,0.871277,0.044922,0.060669,0.484985,0.259201,0.935215,-5.663826,-1.503629,0.816424,-15.287735,95.491958,71.127920,-15.261855,0.000000,0.000000,
152189385,94.157386,23.246702,2,0.862183,0.045349,0.059875,0.501038,0.623085,1.234240,-5.655027,-1.601672,1.250673,-15.256270,95.927745,70.826974,-15.258198,0.000000,0.000000,
152200433,95.758979,23.237627,2,0.852722,0.045715,0.058838,0.517029,0.399548,1.064548,-5.372044,-1.547513,0.928553,-14.984084,96.677724,70.641988,-15.078416,0.000000,0.000000,
152209922,95.960639,23.237627,2,0.842957,0.046082,0.057617,0.532898,0.074513,1.423948,-5.760645,-2.085150,0.771006,-15.299696,97.212977,70.412973,-15.223550,0.000000,0.000000,
152219740,96.474646,23.242164,2,0.833008,0.046509,0.056396,0.548462,0.510371,1.512837,-5.509379,-1.979096,1.152826,-15.065485,97.765296,70.179868,-15.119883,0.000000,0.000000,
152230458,96.567694,23.237627,2,0.822754,0.046997,0.055176,0.563782,0.629673,1.318364,-5.268947,-1.755796,1.143932,-14.855278,98.292279,69.882906,-14.946342,0.000000,0.000000,
152239932,96.585364,23.246702,2,0.812256,0.047668,0.053894,0.578857,0.585295,1.624728,-5.293770,-2.088297,1.154931,-14.831886,98.633894,69.543577,-14.871282,0.000000,0.000000,
152249549,97.799018,23.246702,2,0.801514,0.048462,0.052734,0.593689,0.774996,1.425303,-5.181799,-1.867077,1.230625,-14.749305,99.145700,69.305643,-14.791285,0.000000,0.000000,
152260591,98.001746,23.246702,2,0.790405,0.049377,0.051514,0.608398,0.859118,1.520130,-5.476054,-2.012273,1.293044,-15.024400,99.695766,69.009118,-14.944182,0.000000,0.000000,
152270177,98.810614,23.246702,2,0.779114,0.050720,0.050110,0.622803,0.612530,1.521592,-5.246285,-2.083039,1.013508,-14.785513,100.190754,68.764193,-14.840120,0.000000,0.000000,
152280016,99.105902,23.242164,2,0.767517,0.052368,0.048706,0.637024,0.377019,1.356099,-5.474609,-2.031905,0.711396,-15.027807,100.663402,68.491086,-14.963223,0.000000,0.000000,
152290700,100.007392,23.237627,2,0.755737,0.054260,0.047119,0.650940,0.155903,1.307455,-5.368846,-2.023991,0.452080,-14.926561,101.271406,68.256144,-14.939180,0.000000,0.000000,
152300135,100.319892,23.242164,2,0.743652,0.056396,0.045410,0.664612,0.175652,1.388048,-5.189098,-2.088262,0.452726,-14.735364,101.736490,68.006365,-14.805507,0.000000,0.000000,
152310045,100.430091,23.246702,2,0.731445,0.058716,0.043640,0.677979,0.169337,1.138714,-5.335344,-1.877897,0.400275,-14.914907,102.165060,67.708357,-14.877264,0.000000,0.000000,
152322146,101.036902,23.246702,2,0.719116,0.061096,0.041809,0.690979,0.202983,1.037510,-5.081696,-1.752270,0.312854,-14.669786,102.771812,67.401181,-14.741190,0.000000,0.000000,
152330953,102.234442,23.237627,2,0.706543,0.063477,0.040100,0.703674,-0.349972,0.926467,-5.181864,-1.677479,-0.175735,-14.799660,103.264050,67.206705,-14.779541,0.000000,0.000000,
152340425,102.529822,23.233090,2,0.693787,0.065918,0.038391,0.716125,-0.279682,1.053357,-5.380279,-1.833795,-0.116114,-14.978012,103.762429,66.979738,-14.909715,0.000000,0.000000,
152352176,103.154425,23.242164,2,0.680786,0.068298,0.036682,0.728333,-0.065769,0.872313,-5.044130,-1.610206,-0.002030,-14.659802,104.434544,66.737621,-14.745807,0.000000,0.000000,
152360995,102.748755,23.242164,2,0.667542,0.070618,0.035034,0.740356,-0.525171,1.065300,-5.279184,-1.798098,-0.404908,-14.889280,104.706482,66.406738,-14.839915,0.000000,0.000000,
152370604,103.761878,23.242164,2,0.654053,0.072815,0.033386,0.752197,-0.395753,0.792671,-5.278143,-1.538985,-0.261490,-14.925666,105.167015,66.154554,-14.896160,0.000000,0.000000,
152381372,103.964209,23.242164,2,0.640320,0.074768,0.031799,0.763794,-0.405227,0.611175,-4.948336,-1.297450,-0.274225,-14.623317,105.653252,65.859555,-14.717216,0.000000,0.000000,
152390867,105.473700,23.237627,2,0.626404,0.076660,0.030334,0.775085,-0.536064,0.975039,-5.350138,-1.675416,-0.466949,-14.983942,106.244267,65.696380,-14.892154,0.000000,0.000000,
152401566,105.693213,23.246702,2,0.612305,0.078247,0.028870,0.786194,-0.484006,0.728300,-4.878234,-1.362459,-0.394832,-14.554834,106.843105,65.477355,-14.670919,0.000000,0.000000,
152411005,106.081305,23.237627,2,0.598022,0.079590,0.027527,0.797058,-0.465792,0.996988,-4.979524,-1.617804,-0.473157,-14.612553,107.317788,65.250943,-14.632642,0.000000,0.000000,
152420614,106.874152,23.228552,3,0.583557,0.080750,0.026184,0.807617,-0.598255,1.194993,-5.013624,-1.755941,-0.679670,-14.637199,107.861055,65.059403,-14.635633,0.000000,0.000000,
152431688,107.203986,23.242164,3,0.568848,0.081604,0.024902,0.817993,-0.541458,0.710214,-4.836522,-1.256839,-0.502699,-14.530864,108.457570,64.823599,-14.566921,0.020000,0.020000,
152441021,108.199347,23.233090,3,0.554016,0.082275,0.023743,0.828064,-0.439827,0.836159,-5.172957,-1.452552,-0.455221,-14.838035,109.013535,64.654962,-14.744737,0.040000,0.040000,
152450904,108.916907,23.237627,3,0.539062,0.082703,0.022705,0.837891,-0.311004,0.886674,-4.972730,-1.492592,-0.393429,-14.624577,109.633719,64.499347,-14.665928,0.060000,0.060000,
152461633,109.229132,23.242164,3,0.523865,0.083008,0.021729,0.847473,-0.104579,0.843758,-4.893708,-1.506357,-0.223874,-14.532698,110.249120,64.297106,-14.578548,0.082000,0.082000,
152471161,109.118811,23.237627,3,0.508545,0.083069,0.020874,0.856750,-0.116774,0.793471,-5.095756,-1.478714,-0.234156,-14.741584,110.649329,64.025498,-14.685483,0.100000,0.100000,
152480843,109.836951,23.242164,3,0.493042,0.083069,0.020020,0.865784,-0.083752,0.784290,-4.662996,-1.393631,-0.249630,-14.315866,111.116473,63.793699,-14.443066,0.120000,0.120000,
152491684,110.444800,23.242164,3,0.477417,0.083008,0.019226,0.874573,0.201136,0.442777,-4.924022,-1.287381,0.151843,-14.578220,111.681402,63.559098,-14.531712,0.142000,0.142000,
152501141,110.647254,23.242164,3,0.461548,0.082825,0.018372,0.883057,0.000967,0.601573,-4.767047,-1.277354,-0.132394,-14.432112,112.088127,63.302732,-14.466392,0.162000,0.162000,
152511103,110.960059,23.246702,3,0.445312,0.082642,0.017517,0.891357,0.280428,0.739858,-4.723901,-1.526656,-0.026033,-14.340953,112.506825,63.030629,-14.384125,0.180000,0.180000,
152521844,111.753272,23.237627,3,0.428833,0.082397,0.016541,0.899475,0.054929,1.037420,-4.931957,-1.637635,-0.410902,-14.548299,113.041834,62.788132,-14.491805,0.202000,0.202000,
152531437,112.158240,23.237627,3,0.412170,0.082153,0.015564,0.907227,0.344242,0.696382,-4.849052,-1.529954,-0.006188,-14.463846,113.477958,62.546809,-14.473471,0.222000,0.222000,
152541211,112.876593,23.242164,3,0.395447,0.081970,0.014587,0.914673,-0.007557,0.579486,-4.725758,-1.186313,-0.222972,-14.412501,113.975995,62.336816,-14.433485,0.242000,0.242000,
152552314,113.466925,23.233090,3,0.378540,0.081787,0.013428,0.921875,0.113152,0.814554,-4.992937,-1.462576,-0.316907,-14.640439,114.571832,62.116113,-14.569222,0.262000,0.262000,
152561605,114.074500,23.233090,3,0.361389,0.081665,0.012207,0.928772,0.671367,0.489785,-4.787755,-1.584475,0.264083,-14.390051,115.055150,61.924421,-14.451711,0.282000,0.282000,
152572571,114.091681,23.242164,3,0.344116,0.081604,0.010925,0.935303,0.416949,0.580551,-5.164909,-1.515196,0.011801,-14.792342,115.552768,61.651692,-14.675125,0.302000,0.302000,
152581870,114.902838,23.242164,3,0.326843,0.081543,0.009521,0.941528,0.141165,0.505446,-5.154395,-1.251083,-0.131899,-14.829064,116.003628,61.437795,-14.776091,0.322000,0.322000,
152591578,115.105902,23.242164,3,0.309448,0.081604,0.008057,0.947388,0.657546,0.591808,-5.071267,-1.686499,0.086863,-14.666267,116.431280,61.192255,-14.704065,0.342000,0.342000,
152602593,115.806220,23.237627,3,0.292053,0.081787,0.006531,0.952881,0.151986,0.664860,-5.452896,-1.364546,-0.273996,-15.118228,116.987285,60.954516,-14.975704,0.362000,0.362000,
152611904,115.418311,23.246702,3,0.274597,0.082031,0.004761,0.958069,0.382490,0.576026,-5.429401,-1.494616,-0.090721,-15.067289,117.260223,60.631517,-15.035779,0.382000,0.382000,
152621559,116.727423,23.242164,3,0.257141,0.082336,0.002869,0.962830,0.240812,0.629934,-5.353064,-1.378530,-0.238219,-15.015063,117.745173,60.425488,-15.022194,0.402000,0.402000,
152632615,117.427863,23.237627,3,0.239563,0.082703,0.000854,0.967346,-0.021370,1.034657,-5.648113,-1.373101,-0.713298,-15.334728,118.352855,60.219968,-15.227177,0.424000,0.424000,
152642120,117.740851,23.242164,3,0.221863,0.083130,-0.001282,0.971497,0.062159,0.805672,-5.423914,-1.287292,-0.488414,-15.114914,118.809906,60.005221,-15.153550,0.442000,0.442000,
152651894,118.238776,23.237627,3,0.204163,0.083557,-0.003601,0.975342,0.209105,0.714702,-5.644692,-1.388963,-0.344146,-15.308664,119.288714,59.790007,-15.255286,0.462000,0.462000,
152662717,119.362799,23.242164,3,0.186401,0.083984,-0.005981,0.978882,-0.228595,1.087404,-5.727941,-1.120802,-0.849460,-15.461915,119.948785,59.631203,-15.390807,0.482000,0.482000,
152672045,119.657630,23.237627,3,0.168701,0.084351,-0.008362,0.981995,0.120835,1.136127,-5.963478,-1.465357,-0.770765,-15.644259,120.449793,59.451384,-15.557040,0.502000,0.502000,
152681750,120.173865,23.242164,3,0.151062,0.084656,-0.010803,0.984863,0.155605,1.230923,-6.207820,-1.536337,-0.837813,-15.887328,120.974354,59.265650,-15.773667,0.522000,0.522000,
152692563,119.970679,23.242164,3,0.133301,0.084900,-0.013184,0.987366,-0.157060,1.404635,-5.765289,-1.176814,-1.109399,-15.515170,121.426345,58.983632,-15.604131,0.544000,0.544000,
152702184,120.781287,23.242164,3,0.115540,0.085144,-0.015503,0.989502,0.129170,1.324229,-6.254499,-1.465558,-0.935017,-15.948800,121.872247,58.755534,-15.830191,0.562000,0.562000,
152712027,120.578620,23.242164,3,0.097656,0.085327,-0.017822,0.991394,0.235123,1.617470,-6.506634,-1.624811,-1.199123,-16.195878,122.207565,58.447905,-16.070039,0.582000,0.582000,
152722819,121.077185,23.237627,3,0.079834,0.085449,-0.020081,0.992920,0.101686,1.141758,-6.012799,-1.288227,-0.780886,-15.732563,122.625702,58.148906,-15.848704,0.604000,0.604000,
152732257,121.390296,23.242164,3,0.062012,0.085571,-0.022156,0.994141,0.302815,1.541120,-6.707745,-1.618551,-1.116467,-16.404190,122.942335,57.850677,-16.213035,0.624000,0.624000,
152742085,122.091071,23.237627,3,0.044250,0.085693,-0.024170,0.995056,-0.021733,1.482248,-6.137539,-1.151293,-1.127337,-15.908664,123.350760,57.596897,-16.013411,0.644000,0.644000,
152753169,121.888373,23.237627,3,0.026367,0.085754,-0.026062,0.995605,0.273871,1.148803,-6.507528,-1.443361,-0.760789,-16.206350,123.714211,57.250523,-16.139960,0.664000,0.664000,
152762635,123.603186,23.233090,3,0.008667,0.085876,-0.027771,0.995911,0.111813,1.133563,-6.631541,-1.266850,-0.746272,-16.364445,124.234597,57.082601,-16.287193,0.684000,0.684000,
152773468,123.308264,23.237627,3,-0.008972,0.085938,-0.029480,0.995850,-0.473792,1.357247,-6.405208,-0.617880,-0.977222,-16.263460,124.678438,56.799972,-16.271631,0.704000,0.704000,
152782918,123.510962,23.237627,3,-0.026489,0.085999,-0.031006,0.995483,0.637910,0.959491,-7.047850,-1.802778,-0.590793,-16.688938,124.995660,56.506042,-16.545335,0.724000,0.724000,
152792513,123.713660,23.237627,3,-0.043945,0.086121,-0.032532,0.994812,-0.251527,1.151077,-6.479942,-0.790535,-0.741944,-16.300916,125.297039,56.202267,-16.385033,0.744000,0.744000,
152803392,123.824164,23.242164,3,-0.061157,0.086182,-0.033936,0.993835,0.025694,1.239888,-6.658723,-1.057909,-0.849015,-16.433384,125.631616,55.855612,-16.416751,0.764000,0.764000,
152812768,124.543311,23.246702,3,-0.078125,0.086243,-0.035400,0.992554,-0.674488,1.304445,-6.977661,-0.386458,-0.779867,-16.877034,125.950695,55.571060,-16.718641,0.784000,0.784000,
152822605,124.746039,23.246702,3,-0.094849,0.086304,-0.036743,0.991089,0.007233,1.003761,-6.717415,-1.029540,-0.602656,-16.488270,126.271032,55.271180,-16.567553,0.804000,0.804000,
152833678,125.539801,23.237627,3,-0.111450,0.086365,-0.038086,0.989258,-0.488280,1.159012,-6.929110,-0.529852,-0.620214,-16.798210,126.745036,55.001951,-16.718837,0.826000,0.826000,
152843207,126.055823,23.242164,3,-0.127808,0.086304,-0.039429,0.987244,0.140903,0.956963,-7.580593,-1.271991,-0.527411,-17.322350,127.139193,54.756518,-17.114665,0.844000,0.844000,
152852794,127.052466,23.233090,3,-0.143799,0.086182,-0.040710,0.984985,-0.403770,0.991769,-7.103253,-0.635432,-0.427882,-16.939435,127.647134,54.584173,-16.999738,0.864000,0.864000,
152863858,126.959662,23.237627,3,-0.159424,0.085999,-0.041992,0.982544,0.176840,0.958106,-7.394480,-1.227514,-0.549779,-17.134776,128.121223,54.316345,-17.088308,0.886000,0.886000,
152873243,127.679053,23.242164,3,-0.174805,0.085693,-0.043274,0.979919,-0.314016,1.294500,-6.982401,-0.562872,-0.715900,-16.849179,128.547409,54.106922,-16.931473,0.904000,0.904000,
152882995,127.974128,23.237627,3,-0.189880,0.085388,-0.044556,0.977051,0.186897,1.439054,-7.473999,-1.021506,-0.990489,-17.281008,128.966887,53.872725,-17.160725,0.924000,0.924000,
152893939,127.974128,23.237627,3,-0.204712,0.084961,-0.045776,0.974060,0.545384,1.053264,-7.860260,-1.538125,-0.753679,-17.565041,129.369446,53.567510,-17.425907,0.946000,0.946000,
152903382,128.878669,23.233090,3,-0.219360,0.084534,-0.046997,0.970825,-0.185247,0.872153,-7.401389,-0.847802,-0.298689,-17.202793,129.782585,53.348210,-17.279576,0.964000,0.964000,
152913001,129.505378,23.242164,3,-0.233643,0.084045,-0.048218,0.967468,-0.380288,0.849007,-7.868272,-0.753979,-0.145141,-17.688663,130.243009,53.146297,-17.547884,0.984000,0.984000,
152924070,129.302527,23.242164,3,-0.247498,0.083496,-0.049438,0.963989,0.220379,0.996828,-7.909518,-1.196995,-0.553878,-17.670201,130.654052,52.843881,-17.628112,1.000000,1.000000,
152933306,129.708197,23.242164,3,-0.261230,0.082947,-0.050720,0.960388,0.031049,1.147411,-7.781517,-0.908275,-0.581093,-17.596834,130.964194,52.571642,-17.607602,1.000000,1.000000,
152944249,130.722907,23.242164,3,-0.274780,0.082275,-0.052002,0.956604,-0.102728,0.941042,-8.086646,-0.938690,-0.294528,-17.886932,131.493205,52.348506,-17.790807,1.000000,1.000000,
152953454,131.314795,23.233090,3,-0.288208,0.081543,-0.053345,0.952576,0.207759,1.271299,-7.932177,-0.965396,-0.730074,-17.749466,131.940903,52.164433,-17.763693,1.000000,1.000000,
152963282,131.738257,23.242164,3,-0.301514,0.080872,-0.054626,0.948425,-0.175384,1.109747,-8.060252,-0.737756,-0.354882,-17.893094,132.414772,51.965479,-17.848564,1.000000,1.000000,
152974023,131.738257,23.242164,3,-0.314453,0.080139,-0.055847,0.944214,-0.483590,1.822603,-8.281950,-0.107501,-0.702640,-18.259040,132.845176,51.692573,-18.117785,1.000000,1.000000,
152983610,132.550299,23.242164,3,-0.327209,0.079407,-0.057068,0.939880,-0.417435,1.298012,-7.865765,-0.363552,-0.320014,-17.765372,133.284723,51.488336,-17.886649,1.000000,1.000000,
152993325,132.642615,23.237627,3,-0.339722,0.078674,-0.058167,0.935425,-0.262672,0.945957,-8.458111,-0.791471,-0.086794,-18.275035,133.663849,51.237403,-18.141382,1.000000,1.000000,
153004401,132.550299,23.242164,3,-0.351929,0.078003,-0.059326,0.930847,0.381541,1.587470,-8.295395,-0.811007,-0.977841,-18.156843,134.021675,50.909744,-18.151527,1.000000,1.000000,
153013757,133.344123,23.233090,3,-0.364258,0.077271,-0.060486,0.926086,1.168227,0.416361,-8.288674,-2.118775,-0.640650,-17.882153,134.370288,50.663944,-17.974856,1.000000,1.000000,
153023597,133.158972,23.242164,3,-0.376343,0.076538,-0.061707,0.921265,-0.661541,0.532631,-8.102985,-0.698992,0.543037,-17.897467,134.641173,50.349367,-17.924104,1.000000,1.000000,
153034291,134.469794,23.237627,3,-0.388245,0.075806,-0.062805,0.916260,0.412934,0.674274,-7.954444,-1.309087,-0.315184,-17.679129,135.146512,50.140703,-17.763433,1.000000,1.000000,
153043903,134.968512,23.233090,3,-0.400452,0.075012,-0.063904,0.911011,-0.332219,0.721383,-7.779751,-0.725222,0.193952,-17.584083,135.594320,49.951182,-17.645804,1.000000,1.000000,
153053695,134.783301,23.242164,3,-0.413208,0.074158,-0.065186,0.905273,-0.298135,1.057938,-8.014723,-0.544155,-0.008294,-17.871252,135.930733,49.683413,-17.793672,1.000000,1.000000,
153064782,135.688452,23.237627,3,-0.425842,0.073303,-0.066467,0.899353,0.555352,0.477080,-7.940225,-1.491249,-0.280378,-17.630445,136.435111,49.460276,-17.686618,1.000000,1.000000,
153074085,136.002021,23.242164,3,-0.438354,0.072510,-0.067688,0.893311,0.049189,1.167086,-7.803094,-0.612796,-0.300514,-17.662149,136.813337,49.245635,-17.670572,1.000000,1.000000,
153084943,136.500800,23.237627,3,-0.450745,0.071655,-0.068970,0.887085,0.293319,1.107263,-7.556143,-0.733327,-0.451463,-17.397573,137.288479,49.020885,-17.491521,1.000000,1.000000,
153094296,136.204962,23.242164,3,-0.463196,0.070923,-0.070251,0.880615,-0.357436,1.466465,-7.615317,-0.074416,-0.087000,-17.566336,137.543206,48.730740,-17.540595,0.982000,0.982000,
153104050,137.110236,23.237627,3,-0.475891,0.070190,-0.071594,0.873779,-0.334230,1.181363,-7.591937,-0.300792,0.086424,-17.480954,137.936635,48.510712,-17.501480,0.962000,0.962000,
153114942,137.922156,23.237627,3,-0.488525,0.069458,-0.072937,0.866760,-0.054570,0.531037,-7.748532,-1.016722,0.229130,-17.495183,138.461264,48.318504,-17.497350,0.940000,0.940000,
153124366,137.626807,23.242164,3,-0.500977,0.068726,-0.074280,0.859497,-0.008542,1.279229,-7.811540,-0.421052,-0.160070,-17.702457,138.759513,48.055024,-17.631877,0.922000,0.922000,
153133970,138.125678,23.237627,3,-0.513306,0.068054,-0.075684,0.852173,-0.717619,2.119318,-7.290585,0.751159,0.082736,-17.391488,139.101595,47.815621,-17.474216,0.902000,0.902000,
153145024,138.641791,23.242164,3,-0.525635,0.067383,-0.077148,0.844543,-0.679525,1.465953,-7.521832,0.115691,0.419438,-17.486368,139.542972,47.570211,-17.482188,0.880000,0.880000,
153154513,139.251868,23.242164,3,-0.538147,0.066772,-0.078613,0.836548,0.339180,1.525054,-7.729254,-0.304919,-0.474890,-17.663544,139.939032,47.368850,-17.601135,0.860000,0.860000,
153164227,139.750800,23.237627,3,-0.550781,0.066101,-0.080200,0.828125,-0.806525,1.870250,-7.121029,0.579633,0.456064,-17.169253,140.363141,47.180568,-17.317878,0.842000,0.842000,
153174972,140.562415,23.237627,3,-0.563354,0.065491,-0.081665,0.819580,0.438998,1.004199,-7.628449,-0.769975,-0.312977,-17.466551,140.906400,47.015594,-17.415387,0.820000,0.820000,
153184547,140.359381,23.237627,3,-0.575745,0.064758,-0.083191,0.810791,-0.397171,1.145854,-7.096526,-0.239362,0.433471,-16.979752,141.253362,46.790052,-17.129670,0.800000,0.800000,
153194234,140.969550,23.237627,3,-0.587830,0.063965,-0.084656,0.802002,-0.763675,1.514394,-6.728364,0.273865,0.692010,-16.697759,141.652723,46.595916,-16.846394,0.780000,0.780000,
153205315,141.799536,23.246702,3,-0.599731,0.063049,-0.085999,0.793091,0.173965,0.930695,-7.057945,-0.613827,0.017086,-16.896458,142.195510,46.425375,-16.879229,0.765625,0.765625,
153214791,142.280860,23.233090,3,-0.611084,0.062012,-0.087280,0.784302,-0.343377,1.307520,-6.403082,0.012999,0.416435,-16.334778,142.650719,46.280689,-16.522140,0.781250,0.781250,
153224503,142.391547,23.237627,3,-0.622375,0.060852,-0.088562,0.775330,0.330949,0.205006,-6.410167,-1.186234,0.034180,-16.117560,143.050930,46.094517,-16.256790,0.765625,0.765625,
153235265,143.094245,23.233090,3,-0.633118,0.059631,-0.089783,0.766541,-0.459992,0.730295,-6.461345,-0.533062,0.727377,-16.254462,143.554170,45.924513,-16.255263,0.765625,0.765625,
153244746,142.908911,23.242164,3,-0.643494,0.058289,-0.090881,0.757751,0.076580,0.733653,-5.978431,-0.536774,0.186995,-15.794741,143.868038,45.700435,-15.953224,0.745625,0.745625,
153255604,143.112006,23.242164,3,-0.653870,0.056885,-0.091919,0.748840,-0.090722,0.622828,-5.878152,-0.598681,0.386087,-15.666886,144.221722,45.443984,-15.765427,0.725625,0.725625,
153264862,143.610602,23.237627,3,-0.664124,0.055481,-0.092896,0.739746,0.038012,0.955725,-5.927518,-0.291448,0.248608,-15.791552,144.527293,45.226970,-15.782565,0.705625,0.705625,
153274445,144.331671,23.242164,3,-0.674377,0.053955,-0.093872,0.730408,-0.023691,0.279112,-1.407564,-0.015012,0.093844,-1.432016,144.924616,45.191375,-6.370487,0.691625,0.691625,
153282777,144.331671,23.242164,3,0.000000,0.000000,0.000000,0.000000,0.157356,0.415377,-5.727096,0.687356,2.455377,-15.297096,145.189418,44.992961,-12.225174,0.687500,0.687500,
153285821,143.924933,23.242164,3,-0.684753,0.052368,-0.094849,0.720642,0.248804,1.098000,-5.863983,-0.148046,0.088129,-15.768045,145.090954,44.799177,-14.548837,0.667500,0.667500,
153295300,145.439734,23.237627,3,-0.694946,0.050781,-0.095764,0.710815,-0.290158,0.932147,-5.311047,-0.175762,0.630193,-15.159893,145.579623,44.689896,-14.949609,0.649500,0.649500,
153305985,145.550971,23.242164,3,-0.704895,0.049255,-0.096680,0.700989,-0.078601,0.424101,-5.596392,-0.742777,0.462422,-15.344603,146.050924,44.523492,-15.208673,0.627500,0.627500,
153315469,145.735846,23.233090,3,-0.714355,0.047729,-0.097473,0.691284,-0.197877,0.860315,-5.237684,-0.237770,0.588358,-15.074850,146.413876,44.348076,-15.120904,0.609500,0.609500,
153324970,145.754645,23.242164,3,-0.723755,0.046204,-0.098206,0.681519,-0.185227,0.862566,-4.805562,-0.159732,0.569187,-14.649795,146.711834,44.140217,-14.811921,0.589500,0.589500,
153335804,146.160926,23.242164,3,-0.732849,0.044556,-0.098877,0.671692,0.214795,1.384847,-5.189436,0.303189,0.270324,-15.159887,147.086440,43.918186,-15.040143,0.567500,0.567500,
153345140,146.752143,23.233090,3,-0.741882,0.043030,-0.099487,0.661682,-0.080714,0.778334,-4.829652,-0.245682,0.509249,-14.659333,147.433459,43.745080,-14.790383,0.547500,0.547500,
153355066,147.269721,23.237627,3,-0.750793,0.041443,-0.100098,0.651611,-0.129398,0.386005,-4.609469,-0.592699,0.501398,-14.361290,147.836422,43.584710,-14.508955,0.529500,0.529500,
153366088,147.380988,23.242164,3,-0.759521,0.039856,-0.100647,0.641418,-0.085008,0.842158,-4.893877,-0.197714,0.572909,-14.729465,148.230804,43.372493,-14.653583,0.507500,0.507500,
153375460,147.159003,23.233090,3,-0.768005,0.038330,-0.101135,0.631226,-0.241820,0.649934,-4.403626,-0.315882,0.677756,-14.194723,148.436277,43.118652,-14.352636,0.487500,0.487500,
153385139,147.786811,23.242164,3,-0.776306,0.036804,-0.101685,0.621033,0.094532,0.010438,-4.512850,-0.896167,0.219950,-14.217730,148.731555,42.908313,-14.264158,0.469500,0.469500,
153395837,148.175421,23.233090,3,-0.784424,0.035156,-0.102234,0.610718,0.545493,0.443127,-4.565673,-0.383889,-0.096925,-14.401000,149.085739,42.692064,-14.353911,0.447500,0.447500,
153405365,149.413459,23.242164,3,-0.792419,0.033569,-0.102844,0.600342,0.195320,0.548309,-3.841627,-0.214570,0.236306,-13.671421,149.553240,42.599355,-13.906286,0.427500,0.427500,
153416419,149.930670,23.246702,3,-0.800171,0.031982,-0.103577,0.589905,-0.059531,0.883252,-4.239106,-0.052041,0.629033,-14.084867,150.093923,42.486469,-14.023410,0.407500,0.407500,
153425645,150.116126,23.237627,3,-0.807739,0.030518,-0.104248,0.579407,0.134334,0.601303,-3.953224,-0.213344,0.354065,-13.779594,150.489486,42.362026,-13.863499,0.387500,0.387500,
153435507,150.430640,23.242164,3,-0.815247,0.029114,-0.104858,0.568848,0.095524,0.572749,-3.802802,-0.221468,0.384427,-13.622664,150.895595,42.220955,-13.705543,0.375000,0.375000,
153446345,150.836615,23.242164,3,-0.822571,0.027832,-0.105469,0.558105,0.379806,0.802588,-3.934457,0.057062,0.238261,-13.828051,151.341324,42.064410,-13.785892,0.359375,0.359375,
153455829,150.836615,23.242164,3,-0.829712,0.026611,-0.106018,0.547424,-0.045286,0.830860,-3.615695,-0.012837,0.641051,-13.458574,151.645142,41.878367,-13.571217,0.339375,0.339375,
153465536,151.354407,23.246702,3,-0.836609,0.025452,-0.106567,0.536743,0.037203,0.350460,-3.871859,-0.476914,0.389008,-13.643420,151.996583,41.712590,-13.618574,0.319375,0.319375,
153476622,151.632392,23.233090,3,-0.843506,0.024353,-0.107056,0.525757,0.261448,0.803322,-3.824563,0.024581,0.395395,-13.701681,152.389949,41.519170,-13.673083,0.299375,0.299375,
153485950,151.743140,23.237627,3,-0.850403,0.023193,-0.107544,0.514526,-0.001100,0.701131,-3.261538,-0.069104,0.569215,-13.083428,152.655520,41.321970,-13.286350,0.279375,0.279375,
153495806,152.371253,23.246702,3,-0.857178,0.022156,-0.107971,0.503113,-0.132036,0.948628,-3.663479,-0.016375,0.842012,-13.488321,153.008900,41.156383,-13.418817,0.259375,0.259375,
153506559,152.371253,23.246702,3,-0.863831,0.021179,-0.108276,0.491577,0.280669,0.728536,-3.405788,0.044985,0.372274,-13.272246,153.331251,40.940552,-13.322689,0.237375,0.237375,
153516095,153.980323,23.237627,3,-0.870239,0.020142,-0.108582,0.480103,-0.222030,0.440872,-3.295433,-0.439985,0.650999,-13.036706,153.842679,40.891782,-13.135119,0.234375,0.234375,
153525829,153.573218,23.237627,3,-0.876526,0.019104,-0.108765,0.468567,-0.038457,0.473054,-3.399245,-0.350287,0.527808,-13.171319,154.189639,40.732576,-13.158863,0.218750,0.218750,
153536909,153.684516,23.242164,3,-0.882629,0.017944,-0.108887,0.456970,0.057947,0.664574,-3.111961,-0.089268,0.549678,-12.931015,154.545541,40.531383,-13.009426,0.196750,0.196750,
153546159,154.072852,23.233090,3,-0.888611,0.016724,-0.108948,0.445251,-0.048831,0.831979,-3.389651,-0.081915,0.768402,-13.201649,154.831316,40.353952,-13.135501,0.178750,0.178750,
153556048,154.387488,23.237627,3,-0.894470,0.015442,-0.109070,0.433350,-0.256355,0.546246,-2.890831,-0.340744,0.730031,-12.637650,155.146672,40.177962,-12.808978,0.158750,0.158750,
153566801,154.812415,23.246702,3,-0.900208,0.014038,-0.109070,0.421387,-0.029705,0.312039,-3.100913,-0.439369,0.431116,-12.851552,155.515346,40.001460,-12.836902,0.136750,0.136750,
153576417,155.312110,23.242164,3,-0.905762,0.012634,-0.109131,0.409302,-0.000937,0.667763,-3.091658,-0.153486,0.654351,-12.887326,155.861324,39.853886,-12.869975,0.116750,0.116750,
153586262,154.498297,23.242164,3,-0.911194,0.011230,-0.109192,0.397095,-0.048336,0.448688,-2.620521,-0.256532,0.517854,-12.401735,155.997839,39.574768,-12.562877,0.096750,0.096750,
153597297,155.219062,23.246702,3,-0.916443,0.009827,-0.109253,0.384766,-0.111874,0.316335,-2.834601,-0.449913,0.495072,-12.581149,156.287855,39.346528,-12.574864,0.076750,0.076750,
153606694,155.904364,23.233090,3,-0.921570,0.008301,-0.109375,0.372314,-0.020227,0.584735,-2.651942,-0.175215,0.609979,-12.444631,156.585182,39.184768,-12.489450,0.056750,0.056750,
153617478,156.421363,23.237627,3,-0.926575,0.006836,-0.109497,0.359802,-0.145890,0.193814,-2.489666,-0.498808,0.401621,-12.223711,156.976352,39.033968,-12.315161,0.036750,0.036750,
153626953,156.329352,23.242164,3,-0.931335,0.005310,-0.109558,0.347290,-0.012557,0.518179,-2.793964,-0.260787,0.587009,-12.573478,157.224372,38.839135,-12.484586,0.016750,0.016750,
153636570,156.532172,23.242164,3,-0.935913,0.003784,-0.109558,0.334717,0.089752,0.378006,-2.371027,-0.198179,0.391211,-12.166371,157.467709,38.642304,-12.275881,0.000000,0.000000,
153647585,157.143317,23.242164,3,-0.940369,0.002197,-0.109680,0.322083,0.343834,0.273395,-2.533346,-0.105322,0.179404,-12.367235,157.831828,38.469001,-12.335799,0.000000,0.000000,
153656902,157.845984,23.237627,3,-0.944580,0.000549,-0.109802,0.309448,-0.011734,0.704489,-2.583407,-0.138737,0.744422,-12.373146,158.192357,38.355356,-12.360294,0.000000,0.000000,
153666517,157.753974,23.242164,3,-0.948608,-0.001038,-0.109924,0.296692,-0.145112,0.362230,-2.179322,-0.370038,0.518093,-11.915536,158.478537,38.190467,-12.068593,0.000000,0.000000,
153677501,158.882300,23.246702,3,-0.952515,-0.002747,-0.109985,0.283936,-0.085620,0.151457,-2.388773,-0.483261,0.333379,-12.119096,158.972911,38.103402,-12.101715,0.000000,0.000000,
153686931,159.270819,23.237627,3,-0.956238,-0.004395,-0.110107,0.271057,0.104088,0.679569,-2.396358,-0.066449,0.690267,-12.191606,159.387489,38.023023,-12.160670,0.000000,0.000000,
153696787,159.067939,23.237627,3,-0.959778,-0.006104,-0.110168,0.258179,-0.173897,0.219734,-2.068716,-0.472110,0.417527,-11.788764,159.701855,37.870166,-11.916750,0.000000,0.000000,
153707559,159.381659,23.242164,3,-0.963135,-0.007812,-0.110168,0.245178,0.103569,0.230383,-2.476905,-0.325256,0.326711,-12.245269,160.049090,37.701733,-12.132216,0.000000,0.000000,
153717093,159.881079,23.237627,3,-0.966370,-0.009521,-0.110168,0.232117,0.063434,0.420050,-2.148039,-0.203816,0.495004,-11.922680,160.376532,37.568622,-11.994789,0.000000,0.000000,
153726904,160.583930,23.233090,3,-0.969421,-0.011230,-0.110168,0.218933,-0.012003,0.268342,-2.114583,-0.342623,0.387876,-11.866968,160.783387,37.476013,-11.910954,0.000000,0.000000,
153737951,160.196418,23.242164,3,-0.972351,-0.012939,-0.110168,0.205627,0.106460,0.418954,-2.414013,-0.245536,0.505182,-12.187054,161.086662,37.274348,-12.092042,0.000000,0.000000,
153747390,161.009619,23.242164,3,-0.975037,-0.014648,-0.110168,0.192200,-0.058661,0.224150,-2.002056,-0.389888,0.366940,-11.744593,161.423551,37.154642,-11.864161,0.000000,0.000000,
153758197,161.102729,23.237627,3,-0.977539,-0.016296,-0.110168,0.178772,-0.028249,0.532505,-2.480365,-0.366702,0.684138,-12.217811,161.764234,36.985802,-12.096110,0.000000,0.000000,
153767651,161.009619,23.242164,3,-0.979919,-0.018005,-0.110107,0.165283,0.085108,0.368644,-2.016308,-0.227812,0.466012,-11.788587,161.971976,36.786400,-11.894419,0.000000,0.000000,
153777226,162.749274,23.246702,3,-0.982056,-0.019714,-0.110046,0.151733,0.080453,0.233102,-2.250692,-0.334459,0.365358,-12.014361,162.469203,36.760846,-11.973082,0.000000,0.000000,
153787986,162.731482,23.237627,3,-0.984070,-0.021362,-0.109985,0.138123,-0.001845,0.536867,-2.323862,-0.341933,0.689018,-12.064876,162.913170,36.660997,-12.033286,0.000000,0.000000,
153797415,162.527991,23.237627,3,-0.985840,-0.023010,-0.109863,0.124512,0.097573,0.208122,-1.963817,-0.266568,0.326647,-11.729403,163.186193,36.505887,-11.833980,0.000000,0.000000,
153807160,163.249335,23.242164,3,-0.987427,-0.024719,-0.109802,0.110779,-0.100661,0.304880,-2.234211,-0.505349,0.493420,-11.943879,163.553191,36.396716,-11.906059,0.000000,0.000000,
153818161,163.656867,23.242164,3,-0.988892,-0.026367,-0.109619,0.097107,0.106871,0.353025,-2.084152,-0.273039,0.482216,-11.842030,163.972295,36.278219,-11.864064,0.000000,0.000000,
153827666,163.952948,23.237627,3,-0.990112,-0.028015,-0.109497,0.083374,-0.014872,0.275911,-1.967724,-0.384480,0.423879,-11.703950,164.312974,36.164784,-11.759050,0.000000,0.000000,
153837360,164.063849,23.242164,3,-0.991150,-0.029724,-0.109314,0.069641,0.010874,0.378764,-2.301064,-0.427005,0.552384,-12.028096,164.616334,36.019578,-11.935510,0.000000,0.000000,
153848275,164.471411,23.242164,3,-0.991943,-0.031372,-0.109131,0.055847,0.124667,0.334494,-1.876461,-0.245823,0.459773,-11.640027,164.981662,35.875875,-11.741713,0.000000,0.000000,
153857722,165.174567,23.237627,3,-0.992615,-0.032959,-0.108948,0.042053,0.130534,0.338056,-2.279864,-0.336458,0.498457,-12.032636,165.356169,35.784493,-11.932519,0.000000,0.000000,
153867568,165.286017,23.242164,3,-0.993042,-0.034546,-0.108704,0.028259,0.104009,0.395574,-2.126969,-0.334195,0.550733,-11.873203,165.694795,35.659547,-11.893616,0.000000,0.000000,
153878600,165.489539,23.242164,3,-0.993347,-0.036194,-0.108459,0.014526,0.190629,0.259106,-1.969499,-0.229853,0.406435,-11.746865,166.049030,35.506439,-11.797368,0.000000,0.000000,
153888078,165.988715,23.237627,3,-0.993408,-0.037781,-0.108154,0.000793,0.180446,0.441396,-2.289239,-0.316910,0.617236,-12.030507,166.373706,35.385298,-11.950277,0.000000,0.000000,
153897646,165.896613,23.242164,3,-0.993286,-0.039307,-0.107849,-0.012939,0.021755,0.399064,-1.850758,-0.383400,0.540251,-11.572492,166.622426,35.219745,-11.702502,0.000000,0.000000,
153908812,166.192786,23.237627,3,-0.992981,-0.040833,-0.107483,-0.026672,0.156963,0.209770,-2.043509,-0.297178,0.373239,-11.803342,166.934466,35.039028,-11.768641,0.000000,0.000000,
153918108,167.025855,23.246702,3,-0.992554,-0.042358,-0.107117,-0.040405,0.084939,0.367032,-1.996512,-0.375705,0.531496,-11.726464,167.276807,34.940688,-11.740978,0.000000,0.000000,
153928973,167.618232,23.237627,3,-0.991882,-0.043823,-0.106689,-0.054016,0.032789,0.259817,-1.819675,-0.395460,0.402377,-11.551125,167.719733,34.854254,-11.616458,0.000000,0.000000,
153938193,167.822333,23.237627,3,-0.991028,-0.045288,-0.106140,-0.067627,0.197220,0.332611,-2.162485,-0.320455,0.519814,-11.911160,168.059791,34.756251,-11.809744,0.000000,0.000000,
153948021,167.822333,23.237627,3,-0.989990,-0.046814,-0.105652,-0.081177,0.021085,0.427595,-1.961250,-0.476053,0.577375,-11.666021,168.356362,34.614426,-11.715481,0.000000,0.000000,
153958772,168.637732,23.237627,3,-0.988770,-0.048218,-0.105103,-0.094543,0.056328,0.261128,-2.095378,-0.456025,0.432177,-11.819902,168.780511,34.519471,-11.783967,0.000000,0.000000,
153968253,168.932929,23.233090,3,-0.987427,-0.049622,-0.104492,-0.107788,0.179933,0.401579,-2.040175,-0.360164,0.583996,-11.773000,169.135811,34.425487,-11.776773,0.000000,0.000000,
153977810,168.340461,23.242164,3,-0.985901,-0.051025,-0.103882,-0.121094,-0.042042,0.229312,-1.845468,-0.500119,0.351278,-11.560072,169.315420,34.224085,-11.634649,0.000000,0.000000,
153988810,169.063269,23.246702,3,-0.984131,-0.052368,-0.103271,-0.134338,0.048157,0.357826,-2.083644,-0.503211,0.514179,-11.791720,169.643948,34.065852,-11.737668,0.000000,0.000000,
153998394,169.859381,23.237627,3,-0.982239,-0.053772,-0.102661,-0.147522,-0.022865,0.454802,-1.776073,-0.536700,0.561215,-11.464993,170.010277,33.980987,-11.558828,0.000000,0.000000,
154008246,170.062476,23.237627,3,-0.980164,-0.055115,-0.102051,-0.160706,-0.085479,0.296337,-1.909356,-0.592395,0.393271,-11.602925,170.354266,33.872655,-11.587750,0.000000,0.000000,
154019025,170.674414,23.237627,3,-0.977905,-0.056458,-0.101379,-0.173889,-0.111040,0.628825,-2.034942,-0.756166,0.707881,-11.671270,170.778666,33.783446,-11.642527,0.000000,0.000000,
154028518,170.377600,23.242164,3,-0.975464,-0.057800,-0.100708,-0.187012,-0.140830,0.228446,-1.735744,-0.593053,0.291134,-11.432829,171.023735,33.628503,-11.504995,0.000000,0.000000,
154038200,170.396460,23.251239,3,-0.972839,-0.059143,-0.100037,-0.200073,0.088771,0.316264,-1.972685,-0.476168,0.470476,-11.689127,171.231334,33.443481,-11.625764,0.000000,0.000000,
154049218,170.581763,23.242164,3,-0.970093,-0.060425,-0.099365,-0.213074,-0.043355,0.517494,-2.046377,-0.702349,0.602460,-11.704366,171.477436,33.240622,-11.677319,0.000000,0.000000,
154058567,171.303687,23.246702,3,-0.967102,-0.061768,-0.098694,-0.226074,-0.050219,0.291031,-1.644058,-0.538512,0.363991,-11.346570,171.755174,33.114514,-11.460392,0.000000,0.000000,
154069547,171.212043,23.251239,3,-0.963989,-0.063171,-0.098083,-0.239014,0.100470,0.431674,-2.090601,-0.571942,0.582067,-11.772040,172.016292,32.923277,-11.664795,0.000000,0.000000,
154078752,172.508368,23.237627,3,-0.960693,-0.064514,-0.097473,-0.251892,-0.020679,0.405803,-1.654071,-0.580684,0.466134,-11.331219,172.411077,32.876410,-11.446011,0.000000,0.000000,
154088600,173.119391,23.237627,3,-0.957214,-0.065857,-0.096863,-0.264709,0.003108,0.374553,-1.769792,-0.580752,0.456778,-11.451945,172.866899,32.844612,-11.449900,0.000000,0.000000,
154099417,172.934027,23.246702,3,-0.953491,-0.067200,-0.096313,-0.277527,0.120712,0.401543,-1.980279,-0.548642,0.546800,-11.670092,173.234060,32.726108,-11.594316,0.000000,0.000000,
154108891,173.434607,23.242164,3,-0.949707,-0.068542,-0.095703,-0.290222,-0.029904,0.509914,-1.613449,-0.657935,0.522267,-11.271079,173.581183,32.642653,-11.382314,0.000000,0.000000,
154118719,173.230414,23.242164,3,-0.945679,-0.069885,-0.095093,-0.302856,0.097770,0.440855,-1.963538,-0.611634,0.554907,-11.640456,173.835750,32.488132,-11.551623,0.000000,0.000000,
154130810,173.731513,23.237627,3,-0.941528,-0.071289,-0.094482,-0.315430,0.094727,0.411832,-1.607207,-0.547936,0.447450,-11.298226,174.208210,32.339444,-11.385428,0.000000,0.000000,
154139698,174.453101,23.242164,3,-0.937195,-0.072632,-0.093872,-0.327942,0.126093,0.278240,-1.665376,-0.454531,0.420436,-11.383092,174.541115,32.267279,-11.383894,0.000000,0.000000,
154149147,174.769416,23.246702,3,-0.932739,-0.074036,-0.093201,-0.340393,0.137837,0.411543,-1.883080,-0.577139,0.545627,-11.560501,174.888239,32.184347,-11.499724,0.000000,0.000000,
154160738,174.564673,23.246702,3,-0.928101,-0.075500,-0.092529,-0.352722,0.188862,0.322756,-1.561926,-0.433429,0.420476,-11.274537,175.199909,32.016644,-11.352032,0.000000,0.000000,
154169632,176.269385,23.233090,3,-0.923279,-0.076965,-0.091858,-0.364929,0.225909,0.404341,-1.883840,-0.531698,0.587436,-11.572055,175.684626,32.039039,-11.496333,0.000000,0.000000,
154179100,175.972937,23.237627,3,-0.918396,-0.078430,-0.091125,-0.377014,0.175537,0.359656,-1.525474,-0.471467,0.495407,-11.225920,176.041448,31.965738,-11.318977,0.000000,0.000000,
154190023,176.380957,23.237627,3,-0.913330,-0.079956,-0.090393,-0.388977,0.164819,0.305988,-1.805900,-0.518610,0.460309,-11.508385,176.453485,31.878566,-11.443202,0.000000,0.000000,
154199433,176.399298,23.246702,3,-0.908081,-0.081421,-0.089600,-0.400940,0.264460,0.395497,-1.814892,-0.525784,0.595877,-11.496740,176.742803,31.764113,-11.478316,0.000000,0.000000,
154210334,176.492011,23.242164,3,-0.902710,-0.082947,-0.088745,-0.412720,0.066618,0.275785,-1.575786,-0.528694,0.345660,-11.271054,177.041429,31.612604,-11.342380,0.000000,0.000000,
154219813,176.900031,23.242164,3,-0.897217,-0.084473,-0.087830,-0.424377,0.143647,0.327250,-1.807343,-0.575099,0.457761,-11.491468,177.314073,31.487246,-11.440163,0.000000,0.000000,
154229443,177.103278,23.242164,3,-0.891602,-0.085999,-0.086914,-0.435974,0.306629,0.316379,-1.602533,-0.431709,0.559093,-11.307976,177.577314,31.354241,-11.353466,0.000000,0.000000,
154240180,177.622382,23.246702,3,-0.885864,-0.087524,-0.085876,-0.447449,0.091582,0.220841,-1.640404,-0.501572,0.330522,-11.350261,177.921749,31.237491,-11.351364,0.000000,0.000000,
154249635,177.715094,23.242164,3,-0.880005,-0.089050,-0.084839,-0.458801,0.108996,0.499361,-1.742501,-0.736375,0.505382,-11.376735,178.177890,31.106100,-11.368005,0.000000,0.000000,
154259390,177.918891,23.242164,3,-0.873962,-0.090576,-0.083740,-0.470032,0.236085,0.187071,-1.374424,-0.342692,0.409713,-11.100265,178.432335,30.968321,-11.192404,0.000000,0.000000,
154270476,178.623481,23.237627,3,-0.867859,-0.092041,-0.082581,-0.481201,0.260921,0.431596,-1.778524,-0.636887,0.585810,-11.433463,178.810735,30.863361,-11.350506,0.000000,0.000000,
154279912,179.031073,23.237627,3,-0.861572,-0.093567,-0.081360,-0.492188,0.163844,0.279226,-1.597234,-0.526482,0.411445,-11.288621,179.142738,30.782393,-11.309917,0.000000,0.000000,
154289618,179.327613,23.233090,3,-0.855225,-0.095032,-0.080139,-0.503113,0.139059,0.087574,-1.482597,-0.358554,0.281179,-11.222990,179.475597,30.694603,-11.252903,0.000000,0.000000,
154300549,179.642493,23.237627,3,-0.848694,-0.096497,-0.078796,-0.513977,0.068298,0.540117,-1.843563,-0.865167,0.450121,-11.460494,179.841684,30.588386,-11.389055,0.000000,0.000000,
154309892,179.438697,23.237627,3,-0.842102,-0.097900,-0.077454,-0.524719,-0.025083,0.283300,-1.339083,-0.573248,0.211475,-11.031570,180.051525,30.438827,-11.154593,0.000000,0.000000,
154319661,179.734717,23.233090,3,-0.835327,-0.099304,-0.076050,-0.535339,0.026297,0.302679,-1.626551,-0.638681,0.282952,-11.297080,180.289034,30.292341,-11.248047,0.000000,0.000000,
154330719,179.753577,23.242164,3,-0.828491,-0.100769,-0.074585,-0.545776,0.074479,0.406982,-1.527853,-0.694081,0.353938,-11.176780,180.523040,30.107906,-11.201307,0.000000,0.000000,
154340227,180.774268,23.242164,3,-0.821594,-0.102173,-0.073120,-0.556091,-0.049132,0.231551,-1.393381,-0.555341,0.155758,-11.090217,180.855876,30.031618,-11.128446,0.000000,0.000000,
154349934,180.774268,23.242164,3,-0.814514,-0.103516,-0.071655,-0.566345,0.098858,0.381376,-1.712861,-0.718084,0.378637,-11.361910,181.131568,29.911969,-11.281568,0.000000,0.000000,
154360812,180.755408,23.233090,3,-0.807312,-0.104919,-0.070190,-0.576477,-0.033502,0.412560,-1.487331,-0.739233,0.235005,-11.138315,181.385844,29.747935,-11.187614,0.000000,0.000000,
154370185,181.274176,23.237627,3,-0.799988,-0.106262,-0.068726,-0.586548,-0.051995,0.274100,-1.436198,-0.611305,0.164192,-11.124421,181.643269,29.630768,-11.146168,0.000000,0.000000,
154381125,182.609473,23.242164,3,-0.792480,-0.107544,-0.067261,-0.596497,0.033065,0.458376,-1.639619,-0.809710,0.305897,-11.274602,182.147749,29.617710,-11.230400,0.000000,0.000000,
154390516,181.700751,23.246702,3,-0.784912,-0.108826,-0.065796,-0.606384,-0.044838,0.167727,-1.329155,-0.486341,0.120394,-11.040873,182.341667,29.462219,-11.106097,0.000000,0.000000,
154400259,182.590613,23.233090,3,-0.777222,-0.110107,-0.064392,-0.616150,-0.035280,0.350029,-1.668861,-0.734383,0.204189,-11.325489,182.674779,29.380352,-11.249989,0.000000,0.000000,
154411177,182.813361,23.242164,3,-0.769409,-0.111328,-0.062988,-0.625793,-0.204441,0.221467,-1.350824,-0.572468,-0.026523,-11.059931,183.020859,29.275292,-11.125335,0.000000,0.000000,
154420635,182.813361,23.242164,3,-0.761536,-0.112549,-0.061584,-0.635315,-0.039022,0.118415,-1.443095,-0.468501,0.119606,-11.168683,183.258373,29.145620,-11.153766,0.000000,0.000000,
154430225,183.017249,23.242164,3,-0.753479,-0.113770,-0.060181,-0.644775,-0.024838,0.205138,-1.568491,-0.573127,0.161444,-11.270689,183.492218,29.009964,-11.230454,0.000000,0.000000,
154441289,183.629431,23.242164,3,-0.745300,-0.114990,-0.058777,-0.654114,-0.191486,0.279010,-1.237859,-0.590871,-0.033730,-10.935135,183.838224,28.904394,-11.036763,0.000000,0.000000,
154450536,182.924994,23.246702,3,-0.737000,-0.116150,-0.057373,-0.663391,-0.143529,0.237628,-1.608681,-0.632524,0.034526,-11.303851,183.933957,28.694033,-11.211942,0.000000,0.000000,
154460359,184.241645,23.242164,3,-0.728577,-0.117249,-0.055969,-0.672546,-0.076198,0.336300,-1.460663,-0.683040,0.093264,-11.134211,184.272878,28.619687,-11.160960,0.000000,0.000000,
154471215,184.537787,23.237627,3,-0.720032,-0.118347,-0.054688,-0.681580,-0.134496,0.310152,-1.319970,-0.627592,0.005647,-11.013131,184.632539,28.530144,-11.064002,0.000000,0.000000,
154480729,184.445533,23.242164,3,-0.711426,-0.119324,-0.053345,-0.690491,-0.031702,0.296843,-1.615339,-0.684717,0.130631,-11.293865,184.868426,28.401035,-11.214763,0.000000,0.000000,
154490432,184.946143,23.237627,3,-0.702698,-0.120239,-0.052002,-0.699341,-0.073680,0.255545,-1.188577,-0.536232,0.041814,-10.899283,185.158050,28.304163,-11.007849,0.000000,0.000000,
154501257,185.261725,23.242164,3,-0.693848,-0.121094,-0.050659,-0.708069,-0.142019,0.182179,-1.407495,-0.515235,-0.010164,-11.127348,185.483200,28.195520,-11.086224,0.000000,0.000000,
154510827,185.650702,23.233090,3,-0.684875,-0.121887,-0.049316,-0.716675,-0.053133,0.280707,-1.397412,-0.607791,0.065770,-11.087200,185.783896,28.108733,-11.086863,0.000000,0.000000,
154521754,185.576789,23.246702,3,-0.675781,-0.122620,-0.048035,-0.725220,-0.088619,0.196547,-1.163774,-0.475035,0.013818,-10.884663,186.051600,27.966075,-10.954248,0.000000,0.000000,
154530921,186.374213,23.237627,3,-0.666626,-0.123352,-0.046753,-0.733643,-0.024302,0.441096,-1.607805,-0.819876,0.085460,-11.251713,186.367912,27.900242,-11.149344,0.000000,0.000000,
154540788,185.985175,23.246702,3,-0.657349,-0.124023,-0.045532,-0.741882,0.023208,0.255762,-1.170432,-0.535855,0.107845,-10.868879,186.571039,27.749368,-10.965397,0.000000,0.000000,
154551527,186.782630,23.237627,3,-0.648010,-0.124634,-0.044250,-0.750061,0.078604,0.341546,-1.443831,-0.695240,0.161245,-11.107199,186.908018,27.654187,-11.058400,0.000000,0.000000,
154561067,186.782630,23.237627,3,-0.638550,-0.125244,-0.043030,-0.758118,0.093374,0.398932,-1.448838,-0.758790,0.158038,-11.097322,187.147848,27.533851,-11.083928,0.000000,0.000000,
154570766,188.118628,23.242164,3,-0.628967,-0.125793,-0.041870,-0.766052,-0.014726,0.137602,-1.228816,-0.431048,0.076093,-10.961209,187.596109,27.538289,-11.003437,0.000000,0.000000,
154581794,187.802436,23.237627,3,-0.619324,-0.126282,-0.040649,-0.773804,0.083912,0.287397,-1.498383,-0.658926,0.157746,-11.175026,187.937756,27.438532,-11.115976,0.000000,0.000000,
154591214,188.006415,23.237627,3,-0.609619,-0.126770,-0.039490,-0.781494,0.037567,0.060909,-1.056133,-0.326946,0.119324,-10.805538,188.208623,27.344811,-10.912369,0.000000,0.000000,
154601151,188.210395,23.237627,3,-0.599792,-0.127319,-0.038330,-0.789001,0.044809,0.273511,-1.408156,-0.615899,0.104564,-11.088530,188.480125,27.234834,-11.027907,0.000000,0.000000,
154611888,188.619422,23.237627,3,-0.589905,-0.127869,-0.037170,-0.796448,0.137397,0.302571,-1.264561,-0.631434,0.161347,-10.931132,188.798010,27.133317,-10.964434,0.000000,0.000000,
154621345,189.212012,23.228552,3,-0.579895,-0.128357,-0.036011,-0.803711,0.085586,0.198581,-1.127316,-0.494206,0.118993,-10.828787,189.131678,27.078789,-10.875466,0.000000,0.000000,
154631164,189.119727,23.233090,3,-0.569763,-0.128845,-0.034851,-0.810913,0.149395,0.438293,-1.511958,-0.826319,0.120971,-11.142572,189.394779,26.968020,-11.050652,0.000000,0.000000,
154642239,189.547126,23.242164,3,-0.559570,-0.129333,-0.033630,-0.817932,0.226989,-0.008287,-0.994320,-0.326029,0.303429,-10.718677,189.721342,26.866486,-10.832920,0.000000,0.000000,
154651645,189.955146,23.242164,3,-0.549316,-0.129700,-0.032410,-0.824890,0.092500,0.159749,-1.369931,-0.522010,0.150803,-11.071980,190.017350,26.789366,-10.989711,0.000000,0.000000,
154662496,190.363715,23.242164,3,-0.538940,-0.130066,-0.031189,-0.831665,0.194815,0.054556,-1.136671,-0.410075,0.253587,-10.849980,190.372301,26.711195,-10.898064,0.000000,0.000000,
154671969,190.344306,23.233090,3,-0.528625,-0.130493,-0.029968,-0.838257,0.268409,-0.024700,-1.072231,-0.361575,0.346220,-10.788081,190.619612,26.605789,-10.825930,0.000000,0.000000,
154681669,190.363715,23.242164,3,-0.518250,-0.130920,-0.028809,-0.844666,0.196759,0.073099,-1.364327,-0.498715,0.260100,-11.064144,190.829243,26.469144,-10.982168,0.000000,0.000000,
154692586,190.975287,23.242164,3,-0.507935,-0.131409,-0.027588,-0.850891,0.256575,0.124378,-1.104120,-0.510728,0.261511,-10.792104,191.144926,26.367869,-10.857510,0.000000,0.000000,
154701923,191.087012,23.246702,3,-0.497620,-0.131958,-0.026367,-0.856934,0.142964,-0.032348,-1.089315,-0.315246,0.232881,-10.831965,191.379804,26.260038,-10.840756,0.000000,0.000000,
154711564,191.292090,23.246702,3,-0.487305,-0.132385,-0.025024,-0.862793,0.193573,0.227983,-1.357515,-0.635830,0.157447,-11.033810,191.616038,26.143655,-10.967374,0.000000,0.000000,
154722649,191.383887,23.242164,3,-0.476929,-0.132874,-0.023621,-0.868530,0.165635,0.139149,-0.956500,-0.444323,0.142977,-10.659983,191.861723,25.999050,-10.765767,0.000000,0.000000,
154732005,191.680274,23.237627,3,-0.466553,-0.133362,-0.022156,-0.874084,0.186311,0.183010,-1.275020,-0.578546,0.155667,-10.955285,192.070494,25.875488,-10.890067,0.000000,0.000000,
154741872,191.680274,23.237627,3,-0.456116,-0.133789,-0.020508,-0.879578,0.206404,0.301807,-1.324541,-0.691258,0.107338,-10.982071,192.252219,25.722660,-10.950411,0.000000,0.000000,
154752628,192.404700,23.242164,3,-0.445618,-0.134277,-0.018921,-0.884888,0.161257,0.202167,-1.010828,-0.510017,0.095716,-10.706532,192.556839,25.624756,-10.790458,0.000000,0.000000,
154762083,193.109778,23.237627,3,-0.435120,-0.134705,-0.017212,-0.890076,0.376146,0.366052,-1.332512,-0.850601,0.178230,-10.944019,192.902183,25.584989,-10.891171,0.000000,0.000000,
154771830,192.925635,23.246702,3,-0.424561,-0.135132,-0.015503,-0.895142,0.204623,0.249896,-0.927005,-0.555294,0.074843,-10.611482,193.155458,25.484233,-10.707732,0.000000,0.000000,
154782920,193.518470,23.237627,3,-0.413940,-0.135559,-0.013733,-0.900024,0.163370,0.222322,-1.258280,-0.590220,0.085300,-10.946539,193.505381,25.404102,-10.864357,0.000000,0.000000,
154792294,193.313849,23.237627,3,-0.403259,-0.135986,-0.011963,-0.904846,0.283676,0.285731,-1.206440,-0.708033,0.122426,-10.859326,193.707164,25.280136,-10.861058,0.000000,0.000000,
154803195,193.815406,23.233090,3,-0.392517,-0.136475,-0.010193,-0.909546,0.230765,0.171260,-0.940521,-0.516965,0.132134,-10.624282,194.002399,25.176580,-10.705763,0.000000,0.000000,
154812633,193.425605,23.242164,3,-0.381653,-0.137024,-0.008362,-0.914062,0.315493,0.387291,-1.294025,-0.818145,0.060155,-10.920073,194.131456,25.006562,-10.846325,0.000000,0.000000,
154822226,193.834296,23.242164,3,-0.370911,-0.137573,-0.006592,-0.918396,0.207024,0.220403,-0.924586,-0.535552,0.057590,-10.614156,194.315233,24.870772,-10.694054,0.000000,0.000000,
154833157,194.855353,23.242164,3,-0.360046,-0.138123,-0.004761,-0.922668,0.286623,0.243988,-1.173521,-0.670726,0.119112,-10.833292,194.687592,24.813675,-10.785373,0.000000,0.000000,
154842476,194.743598,23.237627,3,-0.349121,-0.138672,-0.002869,-0.926758,0.369902,0.376353,-0.979406,-0.761793,0.043174,-10.606211,194.928868,24.721374,-10.667866,0.000000,0.000000,
154852357,195.263587,23.242164,3,-0.338196,-0.139282,-0.000916,-0.930725,0.250168,0.168047,-0.920893,-0.531704,0.116176,-10.603373,195.235279,24.654665,-10.625566,0.000000,0.000000,
154863379,195.375342,23.246702,3,-0.327148,-0.139954,0.001038,-0.934570,0.388516,0.452931,-1.339937,-0.923035,0.000677,-10.947929,195.532577,24.550030,-10.836993,0.000000,0.000000,
154872847,195.151831,23.237627,3,-0.316101,-0.140625,0.002991,-0.938232,0.271199,0.376293,-0.879580,-0.666883,-0.059838,-10.537481,195.693232,24.406315,-10.640554,0.000000,0.000000,
154882413,195.968848,23.237627,3,-0.304993,-0.141296,0.004944,-0.941772,0.198566,0.366750,-1.162723,-0.679486,-0.071792,-10.833937,195.977794,24.334148,-10.767387,0.000000,0.000000,
154893342,196.284247,23.242164,3,-0.293884,-0.142029,0.006897,-0.945190,0.321286,0.516226,-1.098428,-0.833791,-0.142251,-10.735837,196.300488,24.251514,-10.746693,0.000000,0.000000,
154902685,196.785956,23.237627,3,-0.282715,-0.142822,0.008911,-0.948486,0.216193,0.346607,-0.935236,-0.615148,-0.086745,-10.614864,196.617531,24.208382,-10.660228,0.000000,0.000000,
154912549,196.693579,23.242164,3,-0.271545,-0.143616,0.010864,-0.951599,0.203705,0.310988,-1.197478,-0.652302,-0.040777,-10.867925,196.870019,24.109836,-10.796449,0.000000,0.000000,
154923612,196.785956,23.237627,3,-0.260376,-0.144531,0.012817,-0.954529,0.167681,0.319659,-0.794628,-0.516232,-0.120966,-10.499832,197.120372,23.984012,-10.601908,0.000000,0.000000,
154932971,197.194800,23.237627,3,-0.249146,-0.145447,0.014832,-0.957336,0.156117,0.257928,-0.976073,-0.521148,-0.054555,-10.676756,197.358309,23.892671,-10.650998,0.000000,0.000000,
154943802,197.009009,23.246702,3,-0.237976,-0.146362,0.016846,-0.960022,0.165500,0.403638,-1.106306,-0.634518,-0.173339,-10.799599,197.551019,23.735921,-10.748462,0.000000,0.000000,
154953251,197.806769,23.237627,3,-0.226746,-0.147339,0.018738,-0.962585,0.087795,0.345723,-0.795564,-0.450288,-0.189882,-10.525556,197.822751,23.666144,-10.602264,0.000000,0.000000,
154962759,198.420356,23.237627,3,-0.215515,-0.148315,0.020630,-0.964966,0.166599,0.414119,-1.234981,-0.665433,-0.183794,-10.919157,198.159128,23.630552,-10.810102,0.000000,0.000000,
154973863,197.918555,23.242164,3,-0.204224,-0.149353,0.022522,-0.967224,0.177641,0.355451,-1.004185,-0.579250,-0.152015,-10.696057,198.375816,23.484511,-10.735304,0.000000,0.000000,
154983215,198.735816,23.242164,3,-0.192993,-0.150391,0.024353,-0.969299,0.077747,0.263524,-0.965498,-0.444512,-0.118919,-10.699268,198.662407,23.426073,-10.711668,0.000000,0.000000,
154993039,198.735816,23.242164,3,-0.181763,-0.151367,0.026184,-0.971252,0.153260,0.335458,-1.208566,-0.606504,-0.130731,-10.904515,198.905752,23.327311,-10.838150,0.000000,0.000000,
155003674,198.828192,23.237627,3,-0.170532,-0.152344,0.027954,-0.973083,0.035482,0.271875,-0.788607,-0.348642,-0.156809,-10.541032,199.138731,23.206318,-10.643280,0.000000,0.000000,
155013273,198.735816,23.242164,3,-0.159302,-0.153320,0.029724,-0.974792,0.121945,0.203755,-0.990693,-0.460400,-0.041324,-10.704013,199.285540,23.057257,-10.683115,0.000000,0.000000,
155022962,199.329505,23.233090,3,-0.148071,-0.154236,0.031433,-0.976379,0.034896,0.301212,-0.908996,-0.389981,-0.175245,-10.662268,199.516671,22.958958,-10.669442,0.000000,0.000000,
155033949,199.757361,23.242164,3,-0.136902,-0.155151,0.033203,-0.977783,0.030990,0.102965,-0.853111,-0.308696,0.011389,-10.605002,199.813355,22.869661,-10.627177,0.000000,0.000000,
155043437,199.664954,23.246702,3,-0.125671,-0.156067,0.034912,-0.979065,0.050517,0.401640,-1.202660,-0.506778,-0.240879,-10.937685,200.002039,22.748645,-10.830830,0.000000,0.000000,
155053285,199.869178,23.246702,3,-0.114502,-0.156982,0.036621,-0.980286,0.019618,0.238988,-0.844602,-0.325053,-0.136143,-10.602928,200.200690,22.629077,-10.681356,0.000000,0.000000,
155064030,200.370520,23.242164,3,-0.103394,-0.157837,0.038269,-0.981262,-0.014379,0.221408,-1.068695,-0.357904,-0.097222,-10.822101,200.475014,22.532143,-10.773666,0.000000,0.000000,
155073665,200.760077,23.233090,3,-0.092285,-0.158691,0.039917,-0.982178,0.083044,0.457582,-1.089864,-0.505943,-0.313784,-10.829660,200.745001,22.460644,-10.810389,0.000000,0.000000,
155083442,200.574744,23.242164,3,-0.081177,-0.159485,0.041626,-0.982971,-0.033624,0.156272,-0.728766,-0.217492,-0.071868,-10.510920,200.932233,22.338442,-10.613977,0.000000,0.000000,
155094521,200.686042,23.246702,3,-0.070129,-0.160217,0.043213,-0.983643,0.137898,0.272428,-1.134273,-0.519284,-0.127104,-10.844657,201.132930,22.190407,-10.765274,0.000000,0.000000,
155103814,201.168036,23.233090,3,-0.059021,-0.160950,0.044861,-0.984192,0.035144,0.268650,-0.749015,-0.305459,-0.172372,-10.509091,201.345281,22.096935,-10.597251,0.000000,0.000000,
155114777,201.372260,23.233090,3,-0.048035,-0.161621,0.046509,-0.984558,0.065000,0.190507,-1.008370,-0.402205,-0.069548,-10.747649,201.591932,21.982250,-10.695893,0.000000,0.000000,
155124011,201.781287,23.233090,3,-0.036987,-0.162231,0.048157,-0.984863,0.073368,0.326541,-1.019826,-0.427079,-0.208391,-10.763683,201.829927,21.904801,-10.740354,0.000000,0.000000,
155133728,201.800727,23.242164,3,-0.026001,-0.162842,0.049744,-0.985046,-0.022238,0.135810,-0.727238,-0.217954,-0.051121,-10.502302,202.036824,21.799417,-10.584223,0.000000,0.000000,
155144703,202.413489,23.242164,3,-0.015076,-0.163330,0.051392,-0.985107,-0.012108,0.173215,-0.956591,-0.303197,-0.066301,-10.725446,202.345961,21.724471,-10.676845,0.000000,0.000000,
155154159,202.413489,23.242164,3,-0.004089,-0.163818,0.052917,-0.985046,-0.026512,0.350175,-0.971103,-0.303742,-0.236811,-10.755776,202.563552,21.630535,-10.728613,0.000000,0.000000,
155163747,202.618262,23.242164,3,0.006836,-0.164246,0.054504,-0.984863,-0.013968,0.155478,-0.738833,-0.229383,-0.072641,-10.511742,202.780712,21.536004,-10.586374,0.000000,0.000000,
155174818,202.394049,23.233090,3,0.017761,-0.164612,0.056091,-0.984619,0.120682,0.226642,-1.031898,-0.454418,-0.123975,-10.757295,202.946064,21.373252,-10.698477,0.000000,0.000000,
155184278,202.803107,23.233090,3,0.028625,-0.164978,0.057617,-0.984192,0.042216,0.161471,-0.632073,-0.241012,-0.093764,-10.397818,203.121026,21.258492,-10.501285,0.000000,0.000000,
155194011,203.119239,23.237627,3,0.039490,-0.165283,0.059204,-0.983704,0.086335,0.135876,-0.837047,-0.351422,-0.056706,-10.579107,203.327096,21.155319,-10.552326,0.000000,0.000000,
155204781,203.844489,23.242164,3,0.050293,-0.165527,0.060730,-0.983032,0.127416,0.116238,-0.875365,-0.400533,-0.036695,-10.595123,203.651209,21.099914,-10.580393,0.000000,0.000000,
155214355,204.346045,23.237627,3,0.061096,-0.165710,0.062317,-0.982300,-0.018959,0.062312,-0.544235,-0.165134,0.004669,-10.326060,203.982893,21.081114,-10.413580,0.000000,0.000000,
155223963,203.936927,23.237627,3,0.071777,-0.165894,0.063904,-0.981445,0.068370,0.152795,-1.024941,-0.390154,-0.054528,-10.759992,204.176325,20.972465,-10.640781,0.000000,0.000000,
155235018,204.365454,23.246702,3,0.082458,-0.166016,0.065491,-0.980469,-0.037068,-0.055030,-0.632481,-0.192709,0.130904,-10.396751,204.442966,20.878807,-10.480729,0.000000,0.000000,
155244510,204.457373,23.242164,3,0.093079,-0.166077,0.067017,-0.979431,0.013696,0.091353,-0.930514,-0.317182,-0.000266,-10.678339,204.643356,20.779038,-10.610335,0.000000,0.000000,
155255458,204.549811,23.237627,3,0.103699,-0.166138,0.068604,-0.978210,-0.047471,0.072774,-0.642962,-0.168571,0.006350,-10.429079,204.852703,20.654122,-10.491455,0.000000,0.000000,
155264725,205.387030,23.246702,3,0.114258,-0.166199,0.070190,-0.976929,-0.035298,-0.073079,-0.650665,-0.209225,0.148185,-10.401813,205.143764,20.619751,-10.432659,0.000000,0.000000,
155274450,206.073035,23.233090,3,0.124817,-0.166199,0.071777,-0.975525,0.009317,0.154371,-0.984842,-0.314155,-0.054721,-10.747192,205.517730,20.621205,-10.638947,0.000000,0.000000,
155285345,205.070838,23.242164,3,0.135315,-0.166199,0.073486,-0.973999,-0.070750,0.108862,-0.586629,-0.109281,-0.021921,-10.387240,205.658101,20.457252,-10.473862,0.000000,0.000000,
155294672,205.683814,23.242164,3,0.145813,-0.166077,0.075134,-0.972351,-0.061390,0.058431,-0.926613,-0.251820,0.060506,-10.694599,205.853246,20.360382,-10.618636,0.000000,0.000000,
155304482,205.980567,23.237627,3,0.156311,-0.165955,0.076843,-0.970642,-0.027541,0.224940,-0.862363,-0.214802,-0.118140,-10.662711,206.076297,20.270251,-10.647543,0.000000,0.000000,
155315520,205.888129,23.242164,3,0.166809,-0.165771,0.078613,-0.968750,-0.084675,0.059538,-0.680604,-0.145487,0.044341,-10.470698,206.264171,20.133284,-10.531556,0.000000,0.000000,
155324968,205.795691,23.246702,3,0.177307,-0.165527,0.080444,-0.966797,-0.042996,0.080523,-0.977885,-0.284895,0.033559,-10.743066,206.366147,19.977571,-10.670281,0.000000,0.000000,
155334669,206.910376,23.242164,3,0.187744,-0.165161,0.082275,-0.964722,-0.101429,0.000696,-0.537831,-0.099539,0.093775,-10.327216,206.661357,19.939467,-10.445273,0.000000,0.000000,
155345600,206.706031,23.242164,3,0.198120,-0.164795,0.084167,-0.962524,-0.075535,-0.045379,-0.711328,-0.205242,0.147361,-10.472360,206.887054,19.830070,-10.463039,0.000000,0.000000,
155354949,207.412055,23.237627,3,0.208496,-0.164368,0.086060,-0.960266,-0.053866,0.186403,-0.839088,-0.183150,-0.062262,-10.643478,207.170300,19.791075,-10.581381,0.000000,0.000000,
155364822,206.798468,23.237627,3,0.218750,-0.163818,0.088013,-0.957886,-0.099659,-0.017354,-0.556014,-0.117656,0.118838,-10.338102,207.295602,19.646712,-10.421824,0.000000,0.000000,
155375841,206.817908,23.246702,3,0.228943,-0.163269,0.089966,-0.955444,-0.085007,0.091293,-0.830688,-0.190919,0.044850,-10.616730,207.421968,19.475606,-10.549659,0.000000,0.000000,
155385264,206.798468,23.237627,3,0.239075,-0.162659,0.091919,-0.952881,-0.052266,0.166741,-0.837476,-0.188613,-0.042103,-10.637403,207.488213,19.303222,-10.607211,0.000000,0.000000,
155394852,208.341986,23.242164,3,0.249146,-0.161926,0.093994,-0.950195,-0.118222,-0.041059,-0.484946,-0.097819,0.139728,-10.266353,207.832653,19.302214,-10.383649,0.000000,0.000000,
155405588,207.727820,23.242164,3,0.259155,-0.161133,0.096069,-0.947449,-0.045188,0.094542,-0.910211,-0.247408,0.032970,-10.680872,208.019626,19.175792,-10.578589,0.000000,0.000000,
155415078,208.229560,23.237627,3,0.269043,-0.160339,0.098145,-0.944580,-0.051686,0.102424,-0.527410,-0.100413,-0.003403,-10.332395,208.240460,19.101915,-10.417117,0.000000,0.000000,
155426158,208.751288,23.242164,3,0.278931,-0.159424,0.100281,-0.941650,-0.082489,0.010539,-0.558602,-0.134768,0.093363,-10.345229,208.547159,19.045262,-10.369966,0.000000,0.000000,
155435359,208.546363,23.242164,3,0.288757,-0.158508,0.102417,-0.938599,0.022988,0.201276,-0.861173,-0.227729,-0.092667,-10.647737,208.721781,18.947064,-10.552147,0.000000,0.000000,
155445181,208.526404,23.233090,3,0.298462,-0.157471,0.104553,-0.935486,-0.109730,0.078695,-0.416411,-0.026484,0.039722,-10.234298,208.870827,18.824299,-10.343681,0.000000,0.000000,
155456037,208.751288,23.242164,3,0.308167,-0.156372,0.106689,-0.932312,-0.010260,0.120991,-0.794997,-0.216089,-0.005909,-10.576386,209.052165,18.696013,-10.496306,0.000000,0.000000,
155465548,209.753852,23.233090,3,0.317810,-0.155151,0.108948,-0.929016,-0.023591,0.122911,-0.568868,-0.123760,-0.024828,-10.372811,209.360943,18.678277,-10.415306,0.000000,0.000000,
155475249,209.681311,23.246702,3,0.327393,-0.153931,0.111145,-0.925598,0.013013,0.049923,-0.661653,-0.218589,0.026448,-10.422105,209.601620,18.613677,-10.419764,0.000000,0.000000,
155486352,209.363929,23.242164,3,0.336914,-0.152588,0.113342,-0.922180,0.015375,0.037517,-0.749124,-0.259535,0.045999,-10.500043,209.763122,18.470205,-10.472417,0.000000,0.000000,
155495673,209.958258,23.233090,3,0.346313,-0.151245,0.115540,-0.918579,-0.017333,-0.089998,-0.462771,-0.210877,0.133416,-10.202146,209.971405,18.397807,-10.295154,0.000000,0.000000,
155505534,209.681311,23.246702,3,0.355713,-0.149841,0.117737,-0.914978,0.093999,0.034340,-0.789392,-0.336113,-0.003151,-10.523715,210.097998,18.261002,-10.445061,0.000000,0.000000,
155516286,210.683966,23.237627,3,0.365051,-0.148376,0.119873,-0.911255,0.034348,-0.004707,-0.490330,-0.206423,0.033631,-10.248493,210.403492,18.217298,-10.316136,0.000000,0.000000,
155525790,210.070166,23.237627,3,0.374329,-0.146912,0.122070,-0.907410,0.043235,-0.112043,-0.491360,-0.283294,0.095836,-10.214591,210.513744,18.081856,-10.249538,0.000000,0.000000,
155535494,210.888404,23.237627,3,0.383484,-0.145386,0.124207,-0.903503,0.161082,0.165574,-0.801356,-0.286266,-0.138004,-10.567286,210.758829,18.021962,-10.457937,0.000000,0.000000,
155546616,211.092841,23.237627,3,0.392639,-0.143799,0.126343,-0.899536,0.001731,-0.096436,-0.403551,-0.214417,0.108928,-10.137243,211.021209,17.946881,-10.247603,0.000000,0.000000,
155555922,211.296729,23.237627,3,0.401672,-0.142212,0.128540,-0.895508,0.095599,0.014678,-0.787780,-0.339384,0.010135,-10.518112,211.239364,17.880749,-10.425020,0.000000,0.000000,
155565751,211.409217,23.242164,3,0.410645,-0.140625,0.130676,-0.891357,0.110532,0.038697,-0.622906,-0.272315,-0.036694,-10.374348,211.446410,17.798116,-10.391785,0.000000,0.000000,
155576518,211.204261,23.242164,3,0.419556,-0.138916,0.132935,-0.887146,0.045005,-0.130092,-0.509543,-0.307539,0.106289,-10.222580,211.592111,17.660514,-10.280810,0.000000,0.000000,
155586021,211.614173,23.242164,3,0.428406,-0.137268,0.135132,-0.882812,0.146142,0.106576,-0.776553,-0.288367,-0.085793,-10.535457,211.763583,17.562856,-10.447825,0.000000,0.000000,
155596926,212.728980,23.237627,3,0.437195,-0.135620,0.137390,-0.878418,0.156364,-0.092801,-0.366924,-0.300209,-0.028898,-10.084538,212.135355,17.562634,-10.209553,0.000000,0.000000,
155606355,212.617011,23.233090,3,0.445923,-0.133972,0.139587,-0.873901,0.079177,-0.075919,-0.494923,-0.284125,0.037418,-10.223794,212.390728,17.521959,-10.218891,0.000000,0.000000,
155615945,212.431983,23.242164,3,0.454529,-0.132263,0.141846,-0.869324,0.127410,0.081258,-0.685689,-0.258381,-0.060355,-10.446495,212.565996,17.426469,-10.368169,0.000000,0.000000,
155627004,212.840918,23.242164,3,0.463074,-0.130615,0.144104,-0.864685,0.138731,-0.107638,-0.404735,-0.304171,-0.012964,-10.122961,212.809591,17.345520,-10.207344,0.000000,0.000000,
155636439,212.524512,23.237627,3,0.471619,-0.128906,0.146362,-0.859985,0.174347,-0.004779,-0.748058,-0.364532,-0.048260,-10.480497,212.919367,17.213599,-10.386498,0.000000,0.000000,
155646209,213.343451,23.237627,3,0.479980,-0.127258,0.148560,-0.855164,0.199528,0.005383,-0.542870,-0.301086,-0.103211,-10.285162,213.166447,17.161454,-10.320033,0.000000,0.000000,
155657220,213.659369,23.242164,3,0.488342,-0.125610,0.150757,-0.850281,0.201129,-0.014279,-0.541258,-0.311260,-0.092727,-10.283287,213.447110,17.104135,-10.295931,0.000000,0.000000,
155666574,213.250922,23.242164,3,0.496582,-0.123901,0.153015,-0.845398,0.219438,0.007007,-0.582631,-0.312042,-0.119702,-10.326677,213.569900,16.984841,-10.316097,0.000000,0.000000,
155676163,213.639930,23.233090,3,0.504700,-0.122314,0.155212,-0.840393,0.138900,-0.106026,-0.424531,-0.315143,-0.022667,-10.145893,213.745416,16.895539,-10.204465,0.000000,0.000000,
155687275,213.751898,23.237627,3,0.512817,-0.120667,0.157410,-0.835266,0.187556,0.055182,-0.664787,-0.281345,-0.101509,-10.427161,213.933720,16.780518,-10.350524,0.000000,0.000000,
155696674,213.863867,23.242164,3,0.520813,-0.119080,0.159668,-0.830139,0.191213,-0.032178,-0.431488,-0.270825,-0.104744,-10.175012,214.077915,16.676889,-10.235412,0.000000,0.000000,
155706409,214.458411,23.233090,3,0.528748,-0.117493,0.161865,-0.824890,0.163273,-0.166613,-0.419863,-0.365893,-0.023614,-10.119314,214.311015,16.621711,-10.159265,0.000000,0.000000,
155717169,214.273383,23.242164,3,0.536560,-0.115967,0.164062,-0.819580,0.236823,0.054406,-0.704802,-0.314094,-0.140315,-10.464912,214.482200,16.504951,-10.359729,0.000000,0.000000,
155726794,214.866919,23.233090,3,0.544373,-0.114441,0.166260,-0.814209,0.131991,-0.032214,-0.371592,-0.218089,-0.057360,-10.124795,214.712653,16.451796,-10.205641,0.000000,0.000000,
155737524,214.477362,23.242164,3,0.552002,-0.112976,0.168457,-0.808777,0.205304,-0.026842,-0.746699,-0.373679,-0.069737,-10.470799,214.844495,16.312711,-10.379551,0.000000,0.000000,
155746838,214.866919,23.233090,3,0.559631,-0.111572,0.170654,-0.803284,0.201754,-0.060703,-0.330979,-0.245611,-0.114815,-10.085723,215.000208,16.221473,-10.186838,0.000000,0.000000,
155756649,215.276984,23.233090,3,0.567139,-0.110168,0.172852,-0.797729,0.156702,-0.089577,-0.406516,-0.285414,-0.048988,-10.139808,215.210676,16.153449,-10.155991,0.000000,0.000000,
155767754,216.002570,23.237627,3,0.574585,-0.108765,0.175049,-0.792114,0.237747,0.028294,-0.624005,-0.285632,-0.134934,-10.390464,215.537720,16.127878,-10.309771,0.000000,0.000000,
155777190,215.388983,23.237627,3,0.581909,-0.107422,0.177185,-0.786438,0.194662,-0.104064,-0.268281,-0.254792,-0.110794,-10.009170,215.661608,16.016349,-10.112617,0.000000,0.000000,
155786879,214.979407,23.237627,3,0.589233,-0.106018,0.179321,-0.780640,0.265197,-0.055336,-0.696103,-0.382282,-0.124626,-10.426282,215.688575,15.837462,-10.318343,0.000000,0.000000,
155797780,216.114539,23.242164,3,0.596497,-0.104675,0.181458,-0.774841,0.254450,0.034263,-0.477315,-0.217186,-0.176635,-10.263454,215.940383,15.773858,-10.282341,0.000000,0.000000,
155807106,216.504187,23.233090,3,0.603638,-0.103394,0.183533,-0.768921,0.199215,-0.130489,-0.423426,-0.325579,-0.096288,-10.145039,216.192648,15.744329,-10.192286,0.018000,0.018000,
155816899,215.685523,23.233090,3,0.610718,-0.102112,0.185608,-0.763000,0.254287,0.067630,-0.647195,-0.243326,-0.152582,-10.434869,216.251403,15.584531,-10.351391,0.000000,0.000000,
155828007,216.411628,23.237627,3,0.617737,-0.100769,0.187683,-0.756958,0.173490,-0.082802,-0.269724,-0.217982,-0.103950,-10.022124,216.453918,15.491190,-10.135434,0.000000,0.000000,
155837495,216.913275,23.233090,3,0.624634,-0.099548,0.189758,-0.750977,0.222678,-0.049404,-0.489518,-0.278158,-0.123680,-10.242476,216.686484,15.447079,-10.205638,0.020000,0.020000,
155847087,217.527472,23.233090,3,0.631409,-0.098328,0.191772,-0.744934,0.184011,0.056301,-0.438744,-0.158228,-0.108287,-10.235502,216.991615,15.444920,-10.225221,0.038000,0.038000,
155857982,216.728186,23.242164,3,0.638062,-0.097168,0.193787,-0.738831,0.199209,-0.165469,-0.233750,-0.275068,-0.132391,-9.964267,217.109978,15.306420,-10.054070,0.060000,0.060000,
155867268,216.504187,23.233090,3,0.644653,-0.096069,0.195801,-0.732727,0.269564,0.129854,-0.711590,-0.208057,-0.155799,-10.526621,217.138193,15.138690,-10.364004,0.080000,0.080000,
155877211,217.025794,23.237627,3,0.651123,-0.095032,0.197815,-0.726562,0.171805,-0.063946,-0.261439,-0.185768,-0.119766,-10.034049,217.267197,15.026143,-10.147597,0.060000,0.060000,
155888269,217.824073,23.228552,3,0.657593,-0.093933,0.199768,-0.720337,0.213712,0.092106,-0.668266,-0.209281,-0.096726,-10.471400,217.536998,14.973614,-10.359967,0.080000,0.080000,
155897735,217.639991,23.237627,3,0.663940,-0.092896,0.201782,-0.714050,0.157700,0.133326,-0.405432,-0.057798,-0.088434,-10.237166,217.697579,14.888668,-10.279425,0.100000,0.100000,
155909435,217.434912,23.237627,3,0.670288,-0.091858,0.203796,-0.707642,0.230342,-0.150940,-0.441863,-0.340472,-0.228666,-10.168650,217.821851,14.739641,-10.206772,0.122000,0.122000,
155918147,218.253730,23.237627,3,0.676697,-0.090759,0.205750,-0.701111,0.094190,0.232094,-0.599438,-0.039305,0.008145,-10.448943,218.030806,14.699211,-10.365602,0.140000,0.140000,
155927603,218.345740,23.233090,3,0.683044,-0.089722,0.207703,-0.694458,0.083381,-0.175529,-0.231123,-0.258395,-0.047316,-9.952389,218.228325,14.641059,-10.094587,0.160000,0.160000,
155939348,218.458289,23.237627,3,0.689270,-0.088745,0.209656,-0.687805,0.276890,0.025093,-0.624343,-0.244773,-0.243654,-10.413689,218.442632,14.544969,-10.303876,0.182000,0.182000,
155948278,218.161170,23.242164,3,0.695496,-0.087708,0.211548,-0.681091,0.152239,-0.027365,-0.450946,-0.212769,-0.074207,-10.216903,218.519375,14.420941,-10.246834,0.200000,0.200000,
155957803,218.141181,23.233090,3,0.701599,-0.086731,0.213501,-0.674255,0.196992,-0.018803,-0.245927,-0.123836,-0.154461,-10.047117,218.585501,14.282178,-10.115847,0.220000,0.220000,
155968620,218.663398,23.237627,3,0.707703,-0.085754,0.215393,-0.667419,0.304329,0.189671,-0.766256,-0.152129,-0.148035,-10.618509,218.753933,14.176328,-10.445527,0.242000,0.242000,
155978089,218.570838,23.242164,3,0.713745,-0.084717,0.217285,-0.660400,-0.132170,0.087864,-0.269383,-0.034911,0.187113,-10.046421,218.853454,14.060317,-10.183767,0.260000,0.260000,
155987676,218.887458,23.246702,3,0.719788,-0.083740,0.219177,-0.653381,0.162433,-0.139695,-0.510558,-0.332946,-0.093030,-10.230971,218.994141,13.966086,-10.214726,0.280000,0.280000,
155998753,219.481269,23.237627,3,0.725647,-0.082764,0.221069,-0.646301,0.017798,0.204165,-0.536955,-0.052599,0.107319,-10.361377,219.239399,13.906234,-10.310908,0.300000,0.300000,
156008010,219.481269,23.237627,3,0.731445,-0.081726,0.222900,-0.639221,0.101341,0.090740,-0.302719,-0.046429,-0.031243,-10.129799,219.412994,13.840374,-10.192123,0.320000,0.320000,
156017914,219.594336,23.242164,3,0.737183,-0.080750,0.224792,-0.632080,-0.013372,-0.122066,-0.548629,-0.349914,0.087260,-10.229801,219.583504,13.759597,-10.216834,0.340000,0.340000,
156028627,219.091529,23.246702,3,0.742798,-0.079773,0.226624,-0.624878,0.189742,0.006183,-0.542785,-0.216480,-0.090962,-10.325270,219.638202,13.593358,-10.287956,0.362000,0.362000,
156038215,219.798957,23.242164,3,0.748352,-0.078796,0.228455,-0.617737,-0.061452,-0.064403,-0.257797,-0.183109,0.093725,-9.988654,219.798192,13.516114,-10.091652,0.380000,0.380000,
156049034,220.412787,23.242164,3,0.753784,-0.077759,0.230286,-0.610535,0.191447,0.137868,-0.730710,-0.176001,-0.029688,-10.543556,220.058896,13.472055,-10.388039,0.402000,0.402000,
156058485,220.095618,23.237627,3,0.759094,-0.076782,0.232056,-0.603333,-0.149549,0.075446,-0.336888,-0.115030,0.219970,-10.084783,220.192662,13.381089,-10.189143,0.422000,0.422000,
156068139,220.392798,23.233090,3,0.764404,-0.075745,0.233887,-0.596008,0.116641,-0.025284,-0.676651,-0.312327,-0.008875,-10.417478,220.358810,13.303305,-10.338900,0.442000,0.442000,
156079238,219.501776,23.246702,3,0.769592,-0.074768,0.235657,-0.588745,0.056642,0.180652,-0.407811,-0.021071,0.065537,-10.239436,220.345339,13.092638,-10.273668,0.462000,0.462000,
156088589,220.300238,23.237627,3,0.774658,-0.073730,0.237427,-0.581421,0.169072,-0.002697,-0.413941,-0.160572,-0.088794,-10.207219,220.458877,12.992007,-10.230086,0.482000,0.482000,
156098346,220.802588,23.233090,3,0.779724,-0.072693,0.239258,-0.574097,0.026352,0.128584,-0.688068,-0.204570,0.136304,-10.460943,220.649471,12.929065,-10.381497,0.502000,0.502000,
156109419,220.709998,23.237627,3,0.784607,-0.071655,0.241028,-0.566711,-0.076572,0.123194,-0.283013,-0.042343,0.159844,-10.071482,220.803366,12.824260,-10.178168,0.522000,0.522000,
156118901,221.191840,23.224015,3,0.789490,-0.070557,0.242798,-0.559265,0.005011,0.148234,-0.669715,-0.187575,0.159336,-10.442658,220.997257,12.770057,-10.351637,0.542000,0.542000,
156128406,220.432257,23.251239,3,0.794250,-0.069458,0.244568,-0.551819,-0.374959,0.090626,-0.295352,-0.168427,0.425778,-9.967617,221.012439,12.610860,-10.099773,0.562000,0.562000,
156139471,220.729468,23.246702,3,0.798950,-0.068359,0.246338,-0.544373,0.137306,-0.051384,-0.615819,-0.293702,-0.038737,-10.358493,221.098345,12.464386,-10.269461,0.582000,0.582000,
156148844,221.529059,23.237627,3,0.803528,-0.067261,0.248108,-0.536926,-0.155071,0.428258,-0.611921,0.017910,0.413559,-10.445386,221.295378,12.416111,-10.384843,0.602000,0.602000,
156158564,221.826300,23.233090,3,0.807983,-0.066101,0.249878,-0.529480,0.171473,-0.032190,-0.411523,-0.167656,-0.100294,-10.200922,221.514965,12.377354,-10.264213,0.622000,0.622000,
156169577,221.938361,23.237627,3,0.812378,-0.064941,0.251648,-0.521973,0.029553,0.089260,-0.684843,-0.245497,0.125160,-10.438183,221.729923,12.310384,-10.378313,0.642000,0.642000,
156178936,222.142493,23.237627,3,0.816711,-0.063721,0.253357,-0.514465,0.098237,0.200831,-0.695194,-0.141235,0.116478,-10.502824,221.921942,12.259639,-10.459974,0.662000,0.662000,
156188607,222.122473,23.228552,3,0.820984,-0.062500,0.255127,-0.506958,0.254619,0.035875,-0.497112,-0.123655,-0.121701,-10.332254,222.077560,12.182523,-10.376206,0.682000,0.682000,
156199699,222.347663,23.237627,3,0.825073,-0.061279,0.256836,-0.499512,0.133001,0.260648,-0.749860,-0.111962,0.131191,-10.580472,222.262608,12.095790,-10.510177,0.704000,0.704000,
156209178,222.756995,23.237627,3,0.829163,-0.059998,0.258545,-0.492004,-0.009010,0.028144,-0.374439,-0.164196,0.083524,-10.128433,222.469433,12.057001,-10.259801,0.722000,0.722000,
156219986,222.050421,23.242164,3,0.833130,-0.058655,0.260315,-0.484497,0.206809,0.200897,-0.805003,-0.161206,0.060220,-10.642212,222.520616,11.894334,-10.510614,0.744000,0.744000,
156229417,222.163001,23.246702,3,0.836975,-0.057373,0.262024,-0.476990,-0.040917,0.208966,-0.536447,-0.122351,0.230268,-10.314914,222.565350,11.755771,-10.382262,0.764000,0.764000,
156239118,222.552314,23.237627,3,0.840759,-0.056030,0.263733,-0.469543,0.134606,-0.042202,-0.488757,-0.220866,-0.057998,-10.259806,222.676475,11.654757,-10.301947,0.782000,0.782000,
156249893,222.756995,23.237627,3,0.844421,-0.054688,0.265442,-0.462036,-0.108625,0.124156,-0.734763,-0.318349,0.269729,-10.426305,222.816522,11.551587,-10.383509,0.804000,0.804000,
156259241,223.167395,23.237627,3,0.848022,-0.053284,0.267151,-0.454590,-0.194755,0.160520,-0.382592,-0.168319,0.309032,-10.100071,222.989783,11.497642,-10.197610,0.822000,0.822000,
156268999,223.074774,23.242164,3,0.851562,-0.051880,0.268799,-0.447083,0.248640,0.118555,-0.553052,-0.079835,-0.041148,-10.409264,223.117379,11.405712,-10.336427,0.842000,0.842000,
156280051,222.776984,23.246702,3,0.855042,-0.050415,0.270508,-0.439575,-0.244602,0.225614,-0.652643,-0.287215,0.423091,-10.326770,223.179066,11.253122,-10.330095,0.864000,0.864000,
156289511,223.463599,23.233090,3,0.858459,-0.048889,0.272217,-0.432007,0.222075,0.193161,-0.490046,-0.013304,0.023325,-10.365628,223.338348,11.187860,-10.353398,0.884000,0.884000,
156299334,223.279456,23.242164,3,0.861755,-0.047363,0.273865,-0.424438,0.116630,0.222924,-0.746466,-0.169579,0.168766,-10.554785,223.436704,11.077473,-10.485482,0.902000,0.902000,
156310100,223.780890,23.237627,3,0.864929,-0.045837,0.275513,-0.416931,-0.189785,0.103146,-0.397551,-0.229391,0.273945,-10.080946,223.619851,11.007862,-10.220158,0.924000,0.924000,
156319471,223.279456,23.242164,3,0.868042,-0.044250,0.277161,-0.409546,0.165297,0.135924,-0.916908,-0.297288,0.108301,-10.691251,223.658769,10.868320,-10.529135,0.944000,0.944000,
156329262,223.186866,23.246702,3,0.871094,-0.042664,0.278809,-0.402100,-0.105649,0.313534,-0.681769,-0.202985,0.388439,-10.415208,223.676364,10.712772,-10.454416,0.964000,0.964000,
156340355,224.282904,23.233090,3,0.874023,-0.041077,0.280396,-0.394714,0.177948,0.138175,-0.484786,-0.073710,0.042777,-10.328924,223.908156,10.666746,-10.372107,0.984000,0.984000,
156349817,224.190802,23.237627,3,0.876831,-0.039429,0.282043,-0.387390,-0.245064,0.238669,-0.693041,-0.337676,0.440722,-10.336538,224.061569,10.601607,-10.348778,1.000000,1.000000,
156359529,224.507605,23.242164,3,0.879578,-0.037720,0.283691,-0.380066,0.039939,0.174683,-0.554501,-0.162589,0.177003,-10.335288,224.247544,10.552097,-10.339928,1.000000,1.000000,
156370347,224.375525,23.228552,3,0.882263,-0.036072,0.285278,-0.372742,-0.033968,0.118067,-0.499497,-0.213805,0.176504,-10.231882,224.385069,10.455878,-10.269064,1.000000,1.000000,
156379743,224.619666,23.246702,3,0.884888,-0.034302,0.286865,-0.365356,-0.056397,0.197197,-0.731821,-0.295481,0.290535,-10.432698,224.526778,10.384806,-10.376385,1.000000,1.000000,
156390666,224.190802,23.237627,3,0.887451,-0.032471,0.288452,-0.358032,0.135773,0.182313,-0.507469,-0.080665,0.122506,-10.338266,224.576669,10.233699,-10.351386,1.000000,1.000000,
156400066,224.599677,23.237627,3,0.889893,-0.030640,0.290039,-0.350769,-0.165401,0.112520,-0.772235,-0.440348,0.305378,-10.387075,224.676715,10.138705,-10.374793,1.000000,1.000000,
156409763,224.897010,23.233090,3,0.892212,-0.028809,0.291565,-0.343567,0.127946,0.317216,-0.725003,-0.134844,0.267380,-10.542045,224.815764,10.061573,-10.484488,1.000000,1.000000,
156420764,224.487586,23.233090,3,0.894470,-0.027039,0.293091,-0.336548,0.039601,0.171459,-0.514909,-0.158254,0.178695,-10.284318,224.864379,9.911180,-10.353204,1.000000,1.000000,
156430236,225.122229,23.242164,3,0.896606,-0.025208,0.294617,-0.329651,-0.061868,0.284714,-0.847150,-0.343824,0.384402,-10.534707,225.006075,9.841092,-10.472245,1.000000,1.000000,
156439811,224.804389,23.237627,3,0.898682,-0.023376,0.296143,-0.322754,-0.103300,0.231167,-0.389887,-0.147902,0.297028,-10.121028,225.062102,9.721225,-10.241894,1.000000,1.000000,
156450941,225.306952,23.233090,3,0.900635,-0.021484,0.297607,-0.315918,-0.014574,0.034274,-0.679583,-0.367737,0.136843,-10.362080,225.215505,9.633634,-10.320719,1.000000,1.000000,
156460268,225.010138,23.237627,3,0.902527,-0.019592,0.299133,-0.309143,-0.064151,0.262947,-0.579902,-0.218924,0.338361,-10.299527,225.266444,9.513853,-10.306821,1.000000,1.000000,
156470038,225.214850,23.237627,3,0.904358,-0.017639,0.300598,-0.302368,-0.119501,0.195056,-0.406290,-0.199666,0.285181,-10.105263,225.349263,9.409255,-10.174625,1.000000,1.000000,
156480768,225.716407,23.233090,3,0.906128,-0.015686,0.302063,-0.295715,0.075464,0.241756,-0.698250,-0.216779,0.266139,-10.461873,225.518355,9.338681,-10.363021,1.000000,1.000000,
156490395,225.419043,23.237627,3,0.907837,-0.013733,0.303528,-0.289062,-0.158768,0.214537,-0.485942,-0.267570,0.334446,-10.150202,225.589200,9.229611,-10.223440,1.000000,1.000000,
156500126,225.735877,23.242164,3,0.909485,-0.011658,0.304932,-0.282349,-0.117895,0.210374,-0.594353,-0.310539,0.324814,-10.262255,225.705982,9.146449,-10.248897,1.000000,1.000000,
156510933,225.849036,23.246702,3,0.911072,-0.009521,0.306396,-0.275635,0.078203,0.215488,-0.735424,-0.259416,0.250154,-10.481116,225.830993,9.049466,-10.401202,1.000000,1.000000,
156520503,226.351142,23.242164,3,0.912598,-0.007446,0.307800,-0.269043,-0.046045,0.016520,-0.431877,-0.266469,0.095053,-10.126635,226.014561,9.012477,-10.221120,1.000000,1.000000,
156530335,226.442694,23.237627,3,0.914062,-0.005249,0.309265,-0.262390,0.028911,0.348911,-0.775260,-0.262393,0.403822,-10.504613,226.182799,8.957949,-10.407052,1.000000,1.000000,
156541131,225.849036,23.246702,3,0.915466,-0.003052,0.310608,-0.255737,-0.038860,0.141268,-0.304760,-0.134256,0.185653,-10.048804,226.216434,8.811463,-10.172090,1.000000,1.000000,
156550634,226.463233,23.246702,3,0.916870,-0.000793,0.312012,-0.248962,0.032748,0.014955,-0.491942,-0.256694,0.069122,-10.212758,226.345930,8.742829,-10.198762,1.000000,1.000000,
156560341,226.853247,23.237627,3,0.918213,0.001587,0.313416,-0.242188,0.001805,0.152579,-0.483264,-0.204158,0.207786,-10.209580,226.525278,8.701491,-10.205855,1.000000,1.000000,
156571333,226.668494,23.246702,3,0.919495,0.003967,0.314819,-0.235291,-0.203095,0.255607,-0.351062,-0.234903,0.370354,-10.000449,226.647149,8.607692,-10.071135,1.000000,1.000000,
156580659,226.463233,23.246702,3,0.920776,0.006409,0.316162,-0.228394,-0.011190,0.112123,-0.686118,-0.360640,0.214491,-10.354572,226.692514,8.489784,-10.257034,1.000000,1.000000,
156591614,226.647986,23.237627,3,0.921997,0.008911,0.317566,-0.221497,-0.057924,0.147705,-0.363980,-0.191428,0.205338,-10.074070,226.776583,8.374285,-10.137034,1.000000,1.000000,
156600987,226.555335,23.242164,3,0.923096,0.011475,0.318909,-0.214600,-0.139704,0.208100,-0.426723,-0.261462,0.305898,-10.078345,226.813190,8.254256,-10.098543,1.000000,1.000000,
156610786,226.555335,23.242164,3,0.924133,0.014038,0.320251,-0.207764,0.038091,0.226907,-0.716095,-0.304337,0.306950,-10.420291,226.845288,8.122766,-10.309569,1.000000,1.000000,
156621842,227.262763,23.237627,3,0.925171,0.016663,0.321594,-0.200806,0.055374,0.168559,-0.259340,-0.049526,0.172563,-10.058665,227.012682,8.058825,-10.145007,1.000000,1.000000,
156631223,226.872718,23.246702,3,0.926147,0.019409,0.322937,-0.193848,-0.104252,0.026158,-0.490759,-0.361585,0.137374,-10.124354,227.061618,7.947659,-10.131462,1.000000,1.000000,
156640806,227.170111,23.242164,3,0.927063,0.022156,0.324280,-0.186768,-0.078082,0.178642,-0.484200,-0.283394,0.267590,-10.146618,227.157622,7.862795,-10.141402,1.000000,1.000000,
156651897,227.262763,23.237627,3,0.927917,0.024902,0.325562,-0.179749,-0.080482,0.208136,-0.486619,-0.275342,0.295262,-10.148167,227.263894,7.762136,-10.145839,1.000000,1.000000,
156661372,227.057990,23.237627,3,0.928711,0.027649,0.326843,-0.172791,0.138811,0.176356,-0.674124,-0.244890,0.231707,-10.422241,227.298389,7.639500,-10.327124,1.000000,1.000000,
156671103,227.671759,23.237627,3,0.929443,0.030518,0.328186,-0.165894,-0.141518,0.208256,-0.308752,-0.218456,0.286458,-9.965597,227.442170,7.585117,-10.090008,1.000000,1.000000,
156681832,227.580146,23.242164,3,0.930115,0.033386,0.329407,-0.158997,0.001974,0.154191,-0.503060,-0.253582,0.221483,-10.199721,227.548796,7.491369,-10.161965,1.000000,1.000000,
156691380,227.784400,23.242164,3,0.930664,0.036255,0.330688,-0.152222,-0.039947,0.200747,-0.555437,-0.304701,0.289606,-10.213003,227.663979,7.420931,-10.195438,1.000000,1.000000,
156701080,227.467505,23.237627,3,0.931213,0.039185,0.331909,-0.145386,-0.092942,0.085470,-0.279620,-0.212288,0.150948,-9.960329,227.698728,7.301970,-10.041238,1.000000,1.000000,
156711969,228.081824,23.237627,3,0.931702,0.042114,0.333191,-0.138550,0.075881,0.210807,-0.558064,-0.224754,0.274084,-10.284487,227.849353,7.233422,-10.200776,1.000000,1.000000,
156721477,228.399237,23.242164,3,0.932068,0.045166,0.334412,-0.131653,-0.077834,0.146081,-0.324218,-0.223274,0.207163,-9.999053,228.020671,7.201712,-10.068470,1.000000,1.000000,
156731313,227.877051,23.237627,3,0.932434,0.048218,0.335632,-0.124756,-0.037513,0.119187,-0.273454,-0.167527,0.171445,-9.987300,228.064143,7.087133,-10.015234,1.000000,1.000000,
156742314,227.467505,23.237627,3,0.932739,0.051270,0.336792,-0.117859,0.035808,0.205139,-0.448847,-0.194927,0.279354,-10.170354,228.029742,6.907633,-10.116975,1.000000,1.000000,
156751611,228.081824,23.237627,3,0.932983,0.054382,0.338013,-0.111084,0.004160,0.105192,-0.381058,-0.202820,0.176235,-10.089730,228.103283,6.819861,-10.099106,1.000000,1.000000,
156761432,227.784400,23.242164,3,0.933167,0.057556,0.339172,-0.104248,-0.061874,0.249734,-0.657474,-0.394601,0.378892,-10.251550,228.110069,6.682917,-10.199091,1.000000,1.000000,
156772522,228.492408,23.237627,3,0.933289,0.060730,0.340332,-0.097473,-0.134785,0.097852,-0.152219,-0.176591,0.142868,-9.825074,228.255203,6.617126,-9.953783,1.000000,1.000000,
156781984,228.808814,23.242164,3,0.933350,0.063965,0.341492,-0.090637,0.057149,0.185489,-0.467200,-0.207301,0.261136,-10.177321,228.421061,6.584789,-10.100392,1.000000,1.000000,
156791674,228.399237,23.242164,3,0.933289,0.067261,0.342590,-0.083862,-0.162352,0.232744,-0.349788,-0.290508,0.315986,-9.943314,228.480321,6.485956,-9.997370,1.000000,1.000000,
156802462,228.492408,23.237627,3,0.933228,0.070496,0.343750,-0.077209,-0.019542,0.137249,-0.275235,-0.167390,0.187247,-9.983801,228.551975,6.379617,-9.988470,1.000000,1.000000,
156811792,229.403693,23.233090,3,0.933105,0.073792,0.344849,-0.070618,0.070742,0.266569,-0.523309,-0.226743,0.354477,-10.214480,228.770540,6.382286,-10.136700,1.000000,1.000000,
156822723,228.604560,23.242164,3,0.932861,0.077087,0.346008,-0.064087,-0.103807,0.226330,-0.330499,-0.252596,0.296382,-9.956522,228.808632,6.254546,-10.018527,1.000000,1.000000,
156831996,229.311042,23.237627,3,0.932617,0.080383,0.347107,-0.057678,-0.027305,0.122418,-0.323029,-0.208679,0.189518,-10.003920,228.960298,6.219780,-10.008945,1.000000,1.000000,
156841817,229.925971,23.237627,3,0.932251,0.083679,0.348206,-0.051331,-0.121096,0.249698,-0.597578,-0.433972,0.373119,-10.138396,229.201634,6.229888,-10.093844,1.000000,1.000000,
156852893,229.423712,23.242164,3,0.931885,0.086975,0.349304,-0.045044,-0.131415,0.060140,-0.168790,-0.196072,0.094774,-9.832566,229.311634,6.146007,-9.922479,1.000000,1.000000,
156862349,229.423712,23.242164,3,0.931458,0.090332,0.350403,-0.038757,-0.017936,0.152567,-0.463299,-0.293647,0.242570,-10.102060,229.390286,6.063361,-10.040260,1.000000,1.000000,
156871945,229.516364,23.237627,3,0.930908,0.093689,0.351501,-0.032532,-0.006541,0.212684,-0.262058,-0.152014,0.266091,-9.955854,229.471616,5.982211,-9.984900,1.000000,1.000000,
156882727,229.311042,23.237627,3,0.930359,0.097046,0.352539,-0.026306,-0.128383,0.019203,-0.145769,-0.187298,0.053199,-9.818661,229.505487,5.858117,-9.875870,1.000000,1.000000,
156892186,229.423712,23.242164,3,0.929749,0.100464,0.353638,-0.020081,0.051339,0.269782,-0.542936,-0.289232,0.376199,-10.179923,229.545116,5.752334,-10.075290,1.000000,1.000000,
156902008,229.925971,23.237627,3,0.929077,0.103882,0.354675,-0.014038,-0.082303,0.173312,-0.178972,-0.157274,0.205464,-9.842692,229.672433,5.698885,-9.922734,1.000000,1.000000,
156912945,229.311042,23.237627,3,0.928345,0.107361,0.355713,-0.008057,-0.097399,0.182661,-0.513725,-0.390621,0.284156,-10.067804,229.666481,5.547932,-10.017882,1.000000,1.000000,
156922448,229.833319,23.242164,3,0.927612,0.110779,0.356750,-0.002075,0.048809,0.280575,-0.435670,-0.225752,0.366055,-10.085297,229.749992,5.471292,-10.062097,1.000000,1.000000,
156932144,230.018134,23.233090,3,0.926758,0.114258,0.357788,0.003906,-0.112012,0.056927,-0.149163,-0.174762,0.078304,-9.816035,229.852784,5.406667,-9.900711,1.000000,1.000000,
156943239,229.741187,23.246702,3,0.925903,0.117737,0.358826,0.009827,-0.067019,0.270516,-0.433043,-0.316448,0.352140,-10.000211,229.891251,5.283127,-9.965971,1.000000,1.000000,
156952675,229.629035,23.242164,3,0.924988,0.121216,0.359863,0.015686,-0.139755,0.155226,-0.137260,-0.181674,0.161432,-9.768578,229.891558,5.160720,-9.836508,1.000000,1.000000,
156962407,229.720648,23.237627,3,0.924011,0.124756,0.360901,0.021484,-0.020227,0.050219,-0.395764,-0.279691,0.131538,-10.050839,229.909301,5.043407,-9.977082,1.000000,1.000000,
156973263,229.629035,23.242164,3,0.922974,0.128296,0.361877,0.027283,-0.104230,0.222299,-0.281008,-0.254795,0.265170,-9.872269,229.910989,4.904408,-9.908339,1.000000,1.000000,
156982780,230.448279,23.242164,3,0.921875,0.131836,0.362854,0.033081,-0.111843,0.058540,-0.168959,-0.195839,0.083116,-9.827420,230.057858,4.872832,-9.855265,1.000000,1.000000,
156992483,230.038123,23.242164,3,0.920715,0.135437,0.363831,0.038757,-0.006028,0.252502,-0.511122,-0.350153,0.355353,-10.083427,230.100961,4.772734,-10.004910,1.000000,1.000000,
157003546,230.058661,23.251239,3,0.919556,0.139038,0.364868,0.044312,-0.118921,0.130739,-0.096224,-0.152582,0.126226,-9.745346,230.145254,4.660012,-9.834670,1.000000,1.000000,
157012889,230.448279,23.242164,3,0.918335,0.142639,0.365845,0.049805,-0.060280,0.195092,-0.466185,-0.366743,0.283212,-10.020925,230.245106,4.601326,-9.956828,1.000000,1.000000,
157022721,229.945471,23.246702,3,0.917053,0.146240,0.366821,0.055237,-0.008643,0.262490,-0.393958,-0.277304,0.341120,-9.976805,230.233773,4.469129,-9.969931,1.000000,1.000000,
157033478,230.130805,23.237627,3,0.915771,0.149902,0.367798,0.060669,-0.108473,0.020828,-0.185530,-0.210397,0.045656,-9.846123,230.262000,4.351492,-9.888730,1.000000,1.000000,
157042990,230.540961,23.237627,3,0.914368,0.153503,0.368713,0.066040,-0.063142,0.237641,-0.509003,-0.397754,0.325373,-10.025323,230.355176,4.288190,-9.978316,1.000000,1.000000,
157052694,230.448279,23.242164,3,0.912964,0.157227,0.369690,0.071350,-0.139248,0.160063,-0.196648,-0.238152,0.164555,-9.792882,230.413763,4.203760,-9.856695,1.000000,1.000000,
157063682,231.360266,23.237627,3,0.911499,0.160889,0.370667,0.076660,-0.155618,0.122340,-0.193254,-0.249359,0.121110,-9.785404,230.636608,4.203297,-9.809934,1.000000,1.000000,
157073031,230.970618,23.246702,3,0.909973,0.164612,0.371643,0.081848,-0.044247,0.229591,-0.429987,-0.341878,0.305064,-9.971417,230.738017,4.148524,-9.915844,1.000000,1.000000,
157083982,230.355628,23.246702,3,0.908447,0.168335,0.372620,0.087036,-0.102212,0.171688,-0.139210,-0.172273,0.166622,-9.761382,230.711245,3.998111,-9.814539,1.000000,1.000000,
157093275,231.268134,23.242164,3,0.906799,0.172119,0.373596,0.092163,-0.028984,0.176254,-0.504419,-0.381885,0.279978,-10.044317,230.852267,3.969065,-9.965240,1.000000,1.000000,
157103143,231.062232,23.242164,3,0.905212,0.175842,0.374512,0.097168,-0.048293,0.260853,-0.334231,-0.279873,0.308765,-9.882631,230.930261,3.895426,-9.911058,1.000000,1.000000,
157113868,231.268134,23.242164,3,0.903503,0.179504,0.375488,0.102051,-0.121400,0.194406,-0.278421,-0.290081,0.206459,-9.822280,231.034749,3.828393,-9.852830,1.000000,1.000000,
157123357,230.857398,23.242164,3,0.901794,0.183228,0.376465,0.106873,-0.007798,0.270552,-0.492939,-0.371324,0.363073,-10.001918,231.037406,3.713038,-9.950613,1.000000,1.000000,
157133123,231.677802,23.242164,3,0.900085,0.186951,0.377502,0.111572,-0.125154,0.211000,-0.122470,-0.186816,0.181720,-9.707503,231.193082,3.691047,-9.791162,1.000000,1.000000,
157144185,230.950080,23.237627,3,0.898254,0.190674,0.378479,0.116150,-0.022737,0.211553,-0.468136,-0.367914,0.300570,-9.995305,231.187784,3.553061,-9.925054,1.000000,1.000000,
157153645,231.360266,23.237627,3,0.896423,0.194397,0.379517,0.120667,-0.074689,0.337071,-0.291021,-0.287662,0.353664,-9.791306,231.253274,3.480413,-9.837332,1.000000,1.000000,
157163385,231.247596,23.233090,3,0.894592,0.198120,0.380493,0.125183,-0.137061,0.111065,-0.074646,-0.157011,0.061690,-9.706430,231.285655,3.385229,-9.751478,1.000000,1.000000,
157174401,231.268134,23.242164,3,0.892639,0.201904,0.381531,0.129700,-0.073421,0.349164,-0.439492,-0.402041,0.397378,-9.867859,231.319062,3.274588,-9.827809,1.000000,1.000000,
157183720,231.042762,23.233090,3,0.890747,0.205688,0.382507,0.134094,-0.122291,0.168451,-0.079653,-0.151042,0.126560,-9.690945,231.297409,3.152399,-9.738045,1.000000,1.000000,
157193457,230.560431,23.246702,3,0.888733,0.209473,0.383545,0.138428,-0.141935,0.239205,-0.448938,-0.451463,0.270106,-9.875040,231.189680,2.972386,-9.827899,1.000000,1.000000,
157204537,231.268134,23.242164,3,0.886719,0.213257,0.384583,0.142700,-0.201039,0.187908,-0.119375,-0.237487,0.114250,-9.657540,231.236721,2.874183,-9.716166,1.000000,1.000000,
157214022,231.769965,23.237627,3,0.884644,0.217041,0.385620,0.146851,-0.181422,0.204201,-0.219331,-0.301921,0.159475,-9.715586,231.363438,2.843655,-9.715783,1.000000,1.000000,
157223764,231.472968,23.242164,3,0.882629,0.220764,0.386658,0.150879,-0.038755,0.292614,-0.494297,-0.424563,0.367158,-9.918802,231.411167,2.759517,-9.848936,1.000000,1.000000,
157234501,231.677802,23.242164,3,0.880493,0.224548,0.387695,0.154907,-0.181174,0.171640,-0.059349,-0.174861,0.082306,-9.631953,231.490181,2.686286,-9.706622,1.000000,1.000000,
157243977,231.769965,23.237627,3,0.878357,0.228333,0.388733,0.158875,-0.122195,0.239217,-0.468903,-0.461410,0.278180,-9.878849,231.567583,2.624813,-9.819579,1.000000,1.000000,
157253775,231.174933,23.246702,3,0.876160,0.232117,0.389771,0.162781,-0.117371,0.376371,-0.254315,-0.304723,0.328799,-9.671846,231.519346,2.485405,-9.722687,1.000000,1.000000,
157264890,231.472968,23.242164,3,0.873962,0.235962,0.390808,0.166748,-0.122370,0.202625,-0.259431,-0.295496,0.180154,-9.763007,231.537681,2.371655,-9.749132,1.000000,1.000000,
157274310,231.472968,23.242164,3,0.871704,0.239807,0.391846,0.170532,-0.133736,0.373628,-0.440598,-0.461934,0.364231,-9.765800,231.547465,2.272168,-9.760064,1.000000,1.000000,
157284001,231.585120,23.246702,3,0.869446,0.243591,0.392944,0.174133,-0.166821,0.259975,-0.204541,-0.294042,0.188780,-9.667072,231.576084,2.182784,-9.699073,1.000000,1.000000,
