Code compiled on Mar 18 2026 at 17:44:41
﻿Simulation Mode (T/F),F
Airbrakes Enabled (T/F),T
Log File Name,RF
Sim File Name (if applicable),Sim
Burnout Mass (kg),0.61
Air Density (kg/m^3),1.2
Rocket CD,0.525
Airbrake CD,0.725
Rocket Area (m^2),0.00243
Kalman Model Y STD,1
Kalman Model V STD,0.4
Kalman Model A STD,5
Kalman Measurement Y STD,5
Kalman Measurement A STD,2
Target Apogee (m),228.6
Launch Acceleration Threshold (m/s^2),40
Coast Lockout (s),1.75
KP (1/s),0.24
Altimeter Lockout (s),60
Control Max Velocity (dep/s),2

Calibration point: 249.206879
Time (us),Altitude AGL (m),Temperature (deg C),Mode,IMU Quat W,IMU Quat X,IMU Quat Y,IMU Quat Z,IMU Raw Local Acceleration X,IMU Raw Local Acceleration Y,IMU Raw Local Acceleration Z,IMU Global Acceleration x,IMU Global Acceleration y,IMU Global Acceleration z,State Estimation y,State Estimation v,State Estimation a,Commanded servo deployment,Real servo deployment,
174582830,-0.242829,23.033442,1,0.946716,-0.005798,-0.003540,-0.322021,0.038874,-0.528376,10.955604,-0.325283,-0.302765,1.158760,-0.183224,0.001807,0.753477,0.000000,0.000000,
174592048,0.250564,23.028904,2,0.946716,-0.005798,-0.003540,-0.321960,1.384027,-11.534863,63.889463,-6.126280,-9.144876,54.197520,-0.098300,0.540659,35.805761,0.000000,0.000000,
174603967,0.050216,23.028904,2,0.946716,-0.005798,-0.003540,-0.322021,0.922636,-9.393749,94.603093,-5.278946,-6.758661,84.884870,-0.056432,1.520447,67.995220,0.000000,0.000000,
174612766,-0.056916,23.024367,2,0.945984,-0.005798,-0.003418,-0.324097,0.254327,-2.660650,99.380469,-1.703209,-0.951776,89.596524,-0.038615,2.324503,82.162842,0.000000,0.000000,
174623076,-0.442658,23.033442,2,0.943970,-0.005310,-0.004089,-0.330017,3.677926,-0.645635,99.749584,2.060584,-1.534761,89.985884,-0.085137,3.202929,87.293730,0.000000,0.000000,
174632303,0.173309,23.042517,2,0.939514,-0.004089,-0.005737,-0.342468,-3.591140,-11.075701,102.725739,-10.698052,-4.980733,92.907444,-0.003018,4.092484,90.975591,0.000000,0.000000,
174641870,-0.442658,23.033442,2,0.934387,-0.003113,-0.006104,-0.356262,-1.966398,-10.800094,101.753705,-9.593136,-5.720418,91.932353,-0.041887,4.919986,91.603100,0.000000,0.000000,
174652891,0.250564,23.028904,2,0.929565,-0.003540,-0.004883,-0.368591,-2.909707,-8.329542,101.788652,-8.488525,-3.045765,91.971446,0.072716,5.968050,91.844688,0.000000,0.000000,
174662075,-1.152314,23.028904,2,0.923157,-0.003601,-0.005005,-0.384399,-0.717689,-0.422989,98.737346,-1.444678,1.237042,88.921772,-0.098463,6.634068,89.927633,0.000000,0.000000,
174671889,-0.257249,23.024367,2,0.913025,-0.003357,-0.005493,-0.407837,3.752587,-8.154285,99.223558,-4.293786,-7.191138,89.475963,-0.058817,7.493088,89.631396,0.000000,0.000000,
174682911,-0.349961,23.028904,2,0.901550,-0.003296,-0.007080,-0.432556,-2.199692,-13.412714,92.351612,-12.750428,-5.564517,82.502402,-0.026112,8.370433,84.955710,0.000000,0.000000,
174692456,-0.242829,23.033442,2,0.890564,-0.004517,-0.007080,-0.454773,-13.139369,-20.136457,89.079778,-24.774894,0.119477,79.078551,0.016438,9.096367,81.101063,0.000000,0.000000,
174703119,0.651794,23.028904,2,0.883301,-0.005066,-0.005737,-0.468811,-5.395640,-12.190512,88.829348,-13.599681,-1.097811,78.981102,0.237090,10.017041,79.710650,0.000000,0.000000,
174712551,0.451431,23.028904,2,0.882202,-0.005066,-0.004456,-0.470825,0.813721,-11.364357,101.580807,-9.305522,-5.673911,91.834924,0.376453,10.913852,87.662584,0.000000,0.000000,
174722180,0.250564,23.028904,2,0.885376,-0.004883,-0.005310,-0.464783,1.346211,-10.143885,104.016842,-8.091981,-5.464955,94.261516,0.462570,11.806294,91.990618,0.000000,0.000000,
174733241,0.944869,23.024367,2,0.891418,-0.004822,-0.006104,-0.453064,0.225939,-9.353413,101.186537,-8.075931,-4.273794,91.405374,0.689264,12.876534,91.606777,0.000000,0.000000,
174742562,1.053558,23.028904,2,0.895142,-0.004211,-0.006348,-0.445679,2.120488,-10.315754,99.428742,-7.711953,-6.608551,89.667672,0.881493,13.756962,90.334980,0.000000,0.000000,
174752428,0.544143,23.024367,2,0.894775,-0.003357,-0.006897,-0.446472,-0.288751,-7.982318,102.014143,-7.503643,-3.327375,92.195354,0.958476,14.625002,91.555140,0.000000,0.000000,
174763175,1.546493,23.024367,2,0.892761,-0.004272,-0.006653,-0.450500,0.374713,-0.177269,95.239972,-0.687098,0.883820,85.433097,1.230728,15.617258,87.539885,0.000000,0.000000,
174772649,1.439361,23.019829,2,0.890259,-0.004578,-0.006409,-0.455383,2.510871,-10.738065,102.878595,-7.983559,-6.884493,93.128629,1.422299,16.527323,91.205369,0.000000,0.000000,
174782404,2.039993,23.019829,2,0.887390,-0.004456,-0.006531,-0.460938,0.368666,-11.061795,102.358692,-9.608609,-5.244847,92.571410,1.703903,17.506304,92.101316,0.000000,0.000000,
174793477,1.947265,23.024367,2,0.889587,-0.004333,-0.005615,-0.456665,-1.420019,-6.957244,101.179554,-7.091442,-1.611076,91.366648,1.949017,18.548114,91.619471,0.000000,0.000000,
174802821,2.748840,23.024367,2,0.892212,-0.004456,-0.004211,-0.451538,-0.158127,-8.101651,96.016141,-6.955645,-3.544604,86.240001,2.276051,19.451439,88.091248,0.000000,0.000000,
174812676,2.255309,23.028904,2,0.891846,-0.004578,-0.004272,-0.452271,-1.966962,-11.481433,98.478191,-10.766193,-4.018096,88.696013,2.468185,20.322971,88.487894,0.000000,0.000000,
174823441,3.427840,23.010754,2,0.891113,-0.004211,-0.004639,-0.453796,0.110875,-12.364031,101.468478,-10.382794,-6.180414,91.701941,2.872595,21.426618,90.595892,0.000000,0.000000,
174832945,3.644241,23.019829,2,0.889771,-0.003723,-0.004272,-0.456421,-1.385495,-6.567938,99.357608,-6.561630,-1.670477,89.553359,3.225128,22.373209,89.912130,0.000000,0.000000,
174842644,3.952331,23.024367,2,0.887085,-0.003479,-0.004395,-0.461548,-1.018109,-10.092205,103.282349,-9.318404,-3.908901,93.485478,3.583140,23.369255,92.255780,0.000000,0.000000,
174853623,3.351089,23.024367,2,0.881775,-0.002808,-0.004883,-0.471680,-0.868986,-7.633729,102.485564,-7.446142,-2.536701,92.671295,3.801747,24.358235,92.528303,0.000000,0.000000,
174863067,4.152755,23.024367,2,0.876892,-0.001282,-0.006531,-0.480591,-0.656448,-8.398202,102.251044,-8.475008,-3.097696,92.399004,4.101813,25.274358,92.443501,0.000000,0.000000,
174872900,4.152755,23.024367,2,0.872131,0.000793,-0.009521,-0.489197,-1.186511,-9.032038,100.935856,-10.073028,-2.897870,91.000347,4.364234,26.175412,91.496982,0.000000,0.000000,
174883613,4.661315,23.028904,2,0.867493,0.003479,-0.013794,-0.497253,-1.179398,-8.145579,100.763640,-10.378956,-2.324278,90.733920,4.705597,27.183895,90.996515,0.000000,0.000000,
174893215,5.340972,23.015292,2,0.862976,0.006897,-0.019470,-0.504883,-0.878640,-9.440571,100.168914,-12.709215,-3.080226,89.964005,5.090008,28.125886,90.319327,0.000000,0.000000,
174904092,5.062713,23.028904,2,0.858459,0.010803,-0.026367,-0.512024,-1.225075,-9.251194,98.919961,-14.272560,-2.486107,88.490601,5.395964,29.085702,89.119922,0.000000,0.000000,
174913555,6.050552,23.019829,2,0.854065,0.015381,-0.034546,-0.518799,-1.262075,-8.678549,98.243754,-15.617860,-1.940181,87.571950,5.797981,29.995004,88.104658,0.000000,0.000000,
174923117,6.358733,23.024367,2,0.849670,0.020508,-0.043884,-0.525085,-1.458994,-9.516929,98.493536,-18.586682,-1.848268,87.377967,6.193979,30.899016,87.628047,0.000000,0.000000,
174934182,6.559722,23.024367,2,0.845276,0.026123,-0.054321,-0.530945,-1.645773,-9.657208,96.846890,-20.918360,-1.411670,85.254269,6.609656,31.887809,86.071161,0.000000,0.000000,
174943721,7.654906,23.019829,2,0.840759,0.032227,-0.065735,-0.536438,-1.999071,-9.966863,96.838812,-23.827142,-0.819424,84.601523,7.113880,32.823370,85.107276,0.000000,0.000000,
174953452,8.657958,23.019829,2,0.836121,0.038757,-0.078064,-0.541626,-1.886139,-10.236576,95.994515,-26.521265,-0.589556,83.042387,7.726873,33.819679,83.752986,0.000000,0.000000,
174964197,9.260040,23.019829,2,0.831238,0.045654,-0.091248,-0.546448,-2.311538,-10.683584,95.723757,-29.801495,0.134369,81.816127,8.382680,34.885212,82.482667,0.000000,0.000000,
174973641,10.370452,23.024367,2,0.826172,0.052917,-0.105042,-0.551025,-2.463948,-11.173292,94.990343,-32.987558,0.636638,80.006872,9.088696,35.884004,80.858879,0.000000,0.000000,
174983337,11.280944,23.028904,2,0.820679,0.060425,-0.119446,-0.555481,-2.887352,-11.548885,94.202466,-36.174796,1.492086,77.976206,9.851385,36.905540,78.968232,0.000000,0.000000,
174994359,13.072295,23.019829,2,0.814758,0.068115,-0.134216,-0.559937,-3.170652,-12.738327,93.735759,-40.105264,1.998051,75.905896,10.867091,38.131233,76.959754,0.000000,0.000000,
175003859,14.492553,23.028904,2,0.808167,0.076111,-0.149231,-0.564636,-3.400283,-13.159086,92.594782,-43.077505,2.778802,73.235772,11.913006,39.270359,74.517327,0.000000,0.000000,
175013690,17.086089,23.019829,2,0.800842,0.084229,-0.164307,-0.569702,-3.629137,-13.673377,93.181770,-46.632925,3.676435,72.022487,13.272940,40.605018,72.881061,0.000000,0.000000,
175024440,18.491973,23.019829,2,0.792725,0.092468,-0.179199,-0.575256,-4.056185,-14.482384,93.068964,-50.177233,4.728834,69.875794,14.692800,41.986617,70.910021,0.000000,0.000000,
175033909,20.406860,23.024367,2,0.783630,0.100891,-0.193787,-0.581543,-4.295352,-15.581861,92.407321,-53.566301,5.566647,67.004898,16.165579,43.318140,68.348798,0.000000,0.000000,
175043664,22.013946,23.024367,2,0.773621,0.109314,-0.207764,-0.588501,-4.702503,-15.868468,91.346383,-55.881077,6.886993,64.007671,17.687927,44.648071,65.501612,0.000000,0.000000,
175054661,24.023437,23.024367,2,0.762695,0.117859,-0.221191,-0.596191,-4.953631,-17.166354,90.632638,-58.972456,7.879481,60.861052,19.371262,46.079632,62.458038,0.000000,0.000000,
175064191,26.727264,23.019829,2,0.750916,0.126526,-0.233887,-0.604492,-5.473253,-17.570693,89.937107,-61.133366,9.464931,58.031099,21.193506,47.530137,59.554580,0.000000,0.000000,
175074005,28.938049,23.019829,2,0.739014,0.134766,-0.246033,-0.612488,-5.843371,-18.107624,90.351229,-63.707742,11.041998,56.108664,23.115298,49.015775,57.294543,0.000000,0.000000,
175084766,30.948363,23.019829,2,0.727478,0.142395,-0.257690,-0.619751,-4.766565,-19.969010,89.732697,-66.493425,10.894844,52.917367,25.115493,50.527852,54.423721,0.000000,0.000000,
175094206,32.463561,23.024367,2,0.716736,0.149109,-0.268982,-0.625854,-5.581262,-19.510138,89.687415,-67.654924,13.123413,51.071149,26.973467,51.903587,52.224906,0.000000,0.000000,
175105051,34.567046,23.019829,2,0.707397,0.154541,-0.279968,-0.630371,-6.238440,-20.289773,89.212022,-69.356608,14.888943,48.309859,28.964070,53.341190,49.657180,0.000000,0.000000,
175114291,37.089111,23.024367,2,0.699463,0.158508,-0.290649,-0.633362,-5.821792,-21.123083,88.075751,-70.432390,15.470617,45.313743,30.983315,54.748468,46.808492,0.000000,0.000000,
175124140,38.496154,23.024367,2,0.693420,0.160645,-0.301331,-0.634460,-7.235966,-20.821985,86.775012,-70.355647,17.923842,42.594047,32.933193,56.068028,44.044399,0.000000,0.000000,
175135163,41.096740,23.015292,2,0.689453,0.160889,-0.311768,-0.633667,-7.328120,-22.060347,87.420177,-72.489015,19.076695,40.830604,35.085219,57.494026,41.936603,0.000000,0.000000,
175144635,43.418700,23.019829,2,0.687317,0.159302,-0.321960,-0.631287,-7.293378,-22.571059,86.636473,-73.009050,19.881565,38.601545,37.195233,58.872003,39.749281,0.000000,0.000000,
175154324,45.323180,23.015292,2,0.686890,0.156006,-0.331726,-0.627502,-8.539709,-22.206367,85.455631,-72.451767,21.861904,36.464181,39.291457,60.200646,37.594720,0.000000,0.000000,
175164999,47.243560,23.019829,2,0.687744,0.151367,-0.340881,-0.622803,-8.247160,-23.069404,84.333583,-72.758423,22.043965,34.165005,41.427477,61.514265,35.345308,0.000000,0.000000,
175174489,48.343047,23.015292,2,0.688904,0.145935,-0.349121,-0.618225,-8.274722,-22.899532,83.946338,-72.633752,22.825318,33.135325,43.309838,62.662570,33.895879,0.000000,0.000000,
175184444,49.458190,23.019829,2,0.688965,0.140808,-0.356079,-0.615417,-8.983194,-23.005184,83.818635,-72.754900,24.323030,32.037880,45.087945,63.714796,32.677300,0.000000,0.000000,
175195372,50.062133,23.019829,2,0.686646,0.136841,-0.361267,-0.615845,-8.445068,-23.197421,82.076649,-71.715493,24.343408,30.335743,46.719095,64.639627,31.141566,0.000000,0.000000,
175204824,50.961120,23.015292,2,0.681763,0.134338,-0.364746,-0.619812,-7.976004,-23.749317,81.712340,-71.710488,24.855684,29.497395,48.127223,65.431600,30.063225,0.000000,0.000000,
175214509,51.363280,23.015292,2,0.673340,0.133789,-0.366211,-0.628174,-6.954526,-23.824771,80.778855,-70.833289,25.002260,28.910869,49.368986,66.098211,29.307444,0.000000,0.000000,
175225481,50.574004,23.024367,2,0.660339,0.135803,-0.365601,-0.641724,-7.623619,-23.127241,79.453257,-68.824705,27.018804,28.128394,50.321888,66.550344,28.534147,0.000000,0.000000,
175234958,50.574004,23.024367,2,0.642029,0.140320,-0.362793,-0.660706,-6.598110,-22.328173,78.613999,-66.968794,27.841153,28.451466,51.001159,66.850409,28.479920,0.000000,0.000000,
175244808,49.550842,23.015292,2,0.617615,0.147400,-0.357727,-0.684692,-7.278676,-21.282199,77.426669,-64.181543,30.348074,28.399816,51.389070,66.957181,28.427376,0.000000,0.000000,
175255540,47.939971,23.015292,2,0.587341,0.156311,-0.350342,-0.712646,-6.113774,-20.286239,75.939766,-61.329212,31.072722,28.777395,51.462389,66.856111,28.656929,0.000000,0.000000,
175265164,46.236755,23.019829,2,0.552307,0.165894,-0.341003,-0.742371,-5.101659,-19.982474,75.476163,-59.443025,32.279563,29.525177,51.126936,66.511506,29.226363,0.000000,0.000000,
175275932,46.035522,23.019829,2,0.515198,0.174500,-0.330444,-0.771301,-4.690683,-18.974531,73.655870,-55.889806,33.321432,29.867646,50.889669,66.226117,29.646939,0.000000,0.000000,
175285406,44.920226,23.015292,2,0.477661,0.181152,-0.319092,-0.798218,-3.527006,-18.609108,73.115984,-53.789846,34.013416,30.872579,50.398585,65.798432,30.450771,0.000000,0.000000,
175295165,44.239532,23.028904,2,0.440247,0.185669,-0.307129,-0.823059,-3.941987,-17.092510,71.718262,-49.605849,35.088751,32.140912,49.887531,65.378530,31.559257,0.000000,0.000000,
175306134,43.619903,23.019829,2,0.403564,0.187866,-0.294739,-0.845581,-4.196356,-15.711178,69.444653,-45.028993,35.278642,32.795857,49.431059,64.995497,32.370279,0.000000,0.000000,
175315443,42.412811,23.019829,2,0.366638,0.188110,-0.281860,-0.866455,-3.840312,-15.074643,68.776714,-42.078704,35.580110,34.195520,48.721169,64.468886,33.567366,0.000000,0.000000,
175325285,42.412811,23.019829,2,0.329285,0.186768,-0.268433,-0.885803,-4.372465,-14.465549,68.508137,-38.646912,36.384465,36.077823,48.174981,64.076039,35.213871,0.000000,0.000000,
175336016,42.396239,23.010754,2,0.290894,0.184082,-0.254395,-0.903748,-4.564074,-13.438449,66.587431,-34.331526,35.733277,36.881965,47.781134,63.788691,36.307899,0.000000,0.000000,
175345570,42.412811,23.019829,2,0.250610,0.180603,-0.239624,-0.920410,-4.847385,-12.665782,66.321050,-30.835971,35.525989,38.870553,47.385685,63.518211,37.988640,0.000000,0.000000,
175355383,42.303680,23.015292,2,0.207947,0.176697,-0.224243,-0.935547,-5.559976,-12.352849,65.470481,-26.842202,35.306915,40.231348,47.058418,63.311297,39.459541,0.000000,0.000000,
175366505,42.520873,23.024367,2,0.162109,0.172729,-0.208130,-0.948975,-6.353751,-11.610110,64.428105,-22.563160,34.246851,41.616790,46.914193,63.238159,40.874395,0.000000,0.000000,
175375881,43.418700,23.019829,2,0.113220,0.168701,-0.191589,-0.960205,-6.450999,-11.809693,64.239803,-19.486326,33.641460,43.083454,46.853391,63.222419,42.323232,0.000000,0.000000,
175385586,43.821593,23.019829,2,0.061768,0.164856,-0.174866,-0.968750,-6.751557,-11.415753,62.697878,-15.755960,31.793704,43.563683,46.900754,63.285975,43.136792,0.000000,0.000000,
175396567,45.138000,23.024367,2,0.007690,0.161377,-0.158020,-0.974121,-6.825666,-11.478134,61.524658,-12.603484,30.141051,44.017679,47.267822,63.561436,43.714531,0.000000,0.000000,
175406024,45.741698,23.024367,2,-0.048767,0.158264,-0.141235,-0.976013,-7.014064,-12.021859,60.894594,-9.659782,28.857317,44.748696,47.584733,63.802100,44.392801,0.000000,0.000000,
175415586,46.841033,23.019829,2,-0.107239,0.155640,-0.124573,-0.974060,-7.224369,-11.719101,59.663587,-6.882533,26.327305,45.054165,48.057514,64.145023,44.826566,0.000000,0.000000,
175426703,48.451202,23.019829,2,-0.167114,0.153381,-0.108154,-0.967896,-7.517422,-11.994685,58.708094,-4.283362,24.161187,45.380665,48.847256,64.695371,45.189984,0.000000,0.000000,
175436134,49.055602,23.019829,2,-0.227966,0.151550,-0.091919,-0.957397,-6.908337,-12.406732,57.327353,-2.597219,22.125380,44.890072,49.498455,65.143544,44.993282,0.000000,0.000000,
175446967,50.775329,23.024367,2,-0.289246,0.150024,-0.075745,-0.942383,-6.670715,-12.266685,56.918835,-1.383702,19.645764,45.392694,50.446316,65.785847,45.255249,0.000000,0.000000,
175456397,51.379333,23.024367,2,-0.350586,0.148743,-0.059570,-0.922729,-6.532373,-12.765557,55.650891,0.168288,17.344410,44.984221,51.243657,66.321650,45.077495,0.000000,0.000000,
175466020,52.076568,23.019829,2,-0.411377,0.147766,-0.043274,-0.898376,-5.833628,-12.627471,54.331085,0.617750,14.903878,44.261069,52.039986,66.845842,44.542030,0.000000,0.000000,
175476766,51.286681,23.028904,2,-0.470886,0.146973,-0.026978,-0.869446,-5.015546,-12.155810,51.664487,0.740057,12.256362,42.082703,52.619429,67.210773,42.929031,0.000000,0.000000,
175486206,52.386626,23.024367,2,-0.528259,0.146179,-0.010620,-0.836304,-4.329381,-12.032910,51.250468,0.443577,10.320965,42.000910,53.212085,67.579322,42.320305,0.000000,0.000000,
175495871,52.479797,23.019829,2,-0.583130,0.145325,0.006104,-0.799255,-3.930880,-10.672456,48.339414,-0.543525,7.458800,39.290400,53.729754,67.873118,40.333082,0.000000,0.000000,
175506873,52.587981,23.024367,2,-0.634827,0.144226,0.023132,-0.758728,-3.850740,-10.161585,46.054477,-1.115253,5.037264,37.241246,54.264613,68.151204,38.305238,0.000000,0.000000,
175516385,53.285278,23.019829,2,-0.682922,0.142822,0.040527,-0.715271,-3.486529,-9.769168,43.627570,-1.805083,3.159997,34.893839,54.730671,68.365547,36.067803,0.000000,0.000000,
175526243,53.998168,23.024367,2,-0.727112,0.140869,0.058289,-0.669373,-3.218394,-8.998671,40.354806,-2.728836,1.346292,31.554903,55.268691,68.590596,33.107929,0.000000,0.000000,
175536929,53.688049,23.019829,2,-0.767090,0.138306,0.076355,-0.621765,-3.242684,-8.130193,37.245505,-3.884622,-0.335334,28.262416,55.706755,68.708961,29.929902,0.000000,0.000000,
175546488,54.384917,23.015292,2,-0.802856,0.135071,0.094421,-0.572937,-3.440247,-6.936713,33.541700,-5.186869,-1.739534,24.185294,56.116573,68.781812,26.162187,0.000000,0.000000,
175556304,54.880920,23.010754,2,-0.834473,0.131348,0.112305,-0.523254,-3.843992,-5.984206,31.915542,-6.960018,-2.726628,22.027250,56.561080,68.853063,23.450206,0.000000,0.000000,
175567109,55.098388,23.019829,2,-0.862000,0.127014,0.130005,-0.473145,-4.124564,-5.668416,30.124244,-8.069389,-3.550940,19.847742,57.031856,68.897842,21.087456,0.000000,0.000000,
175576642,55.702666,23.019829,2,-0.885681,0.122314,0.147156,-0.423035,-4.592338,-5.066328,28.223533,-9.411578,-4.108547,17.366715,57.440076,68.904585,18.647132,0.000000,0.000000,
175586486,56.400176,23.015292,2,-0.905579,0.117188,0.163452,-0.373413,-4.913948,-4.440438,25.532210,-10.233553,-4.291424,14.126845,57.924000,68.921719,15.682413,0.000000,0.000000,
175597182,56.912322,23.019829,2,-0.922058,0.111755,0.178772,-0.324585,-4.616441,-4.091297,24.525408,-10.923596,-3.872118,12.677270,58.472148,68.939996,13.711429,0.000000,0.000000,
175606673,57.826415,23.024367,2,-0.935364,0.106079,0.192932,-0.276733,-5.399038,-3.409766,22.446011,-11.961681,-3.769334,9.879783,59.005678,68.956168,11.198369,0.000000,0.000000,
175617664,58.027892,23.024367,2,-0.945923,0.100342,0.205627,-0.229980,-5.101313,-3.642475,22.028284,-12.280653,-3.521591,9.214347,59.580718,68.943920,9.897106,0.000000,0.000000,
175626988,58.818267,23.015292,2,-0.954041,0.094543,0.216614,-0.184387,-4.912704,-3.282885,19.823075,-11.980052,-2.939784,6.799002,60.080732,68.915235,7.865153,0.000000,0.000000,
175636856,59.531554,23.019829,2,-0.959900,0.088928,0.226013,-0.140137,-5.299927,-2.770371,18.223468,-12.280328,-2.303774,4.757712,60.657980,68.898001,5.827077,0.000000,0.000000,
175647793,60.245879,23.024367,2,-0.963745,0.083496,0.233887,-0.097351,-4.894442,-2.846796,16.267466,-11.442447,-1.988936,2.923039,61.334312,68.882982,3.922407,0.000000,0.000000,
175657137,61.128143,23.010754,2,-0.965942,0.078308,0.240173,-0.056152,-4.714965,-2.357928,13.324240,-10.272006,-1.353384,0.098670,61.939124,68.857853,1.414536,0.000000,0.000000,
175666872,61.144195,23.019829,2,-0.966614,0.073364,0.245056,-0.016418,-4.412264,-1.487779,9.157975,-8.246427,-0.543688,-3.700121,62.460131,68.728889,-1.940012,0.000000,0.000000,
175677934,61.454528,23.024367,2,-0.965942,0.068787,0.248596,0.021667,-3.864369,-1.467589,7.535767,-7.084940,-0.347400,-4.955175,63.031484,68.558547,-3.917567,0.000000,0.000000,
175687299,62.060210,23.024367,2,-0.964172,0.064514,0.250732,0.058167,-3.281699,-0.670665,5.160272,-5.397141,0.389888,-6.881105,63.490996,68.377677,-5.861264,0.000000,0.000000,
175697049,61.765929,23.028904,2,-0.961365,0.060669,0.251770,0.093079,-3.053586,0.203258,2.675716,-3.830651,1.083724,-9.011279,63.833920,68.088289,-7.927268,0.000000,0.000000,
175707920,62.865936,23.024367,2,-0.957825,0.057190,0.251587,0.126282,-2.544113,0.307212,1.843329,-2.913647,1.153931,-9.480664,64.392059,67.873347,-8.946096,0.000000,0.000000,
175717405,63.656707,23.015292,2,-0.953613,0.054077,0.250366,0.157959,-2.409300,0.935745,0.432420,-1.885122,1.619149,-10.636076,64.897437,67.685044,-10.054505,0.000000,0.000000,
175727113,63.362884,23.019829,2,-0.948914,0.051331,0.248230,0.188049,-1.516969,1.296498,-0.132374,-0.666398,1.664668,-10.661165,65.266514,67.402508,-10.452401,0.000000,0.000000,
175738149,63.967101,23.019829,2,-0.943726,0.048828,0.245178,0.216431,-1.197242,1.581984,-0.976945,0.181289,1.697217,-11.215130,65.766110,67.128391,-10.952657,0.000000,0.000000,
175747494,64.479125,23.024367,2,-0.938293,0.046448,0.241455,0.243286,-0.815966,2.281555,-1.729160,1.220102,2.006481,-11.642374,66.151632,66.867119,-11.405027,0.000000,0.000000,
175757331,65.177734,23.019829,2,-0.932556,0.044006,0.237366,0.268372,-0.266629,2.462871,-1.772402,1.832034,1.858155,-11.380213,66.626406,66.641755,-11.388756,0.000000,0.000000,
175767979,65.798156,23.028904,2,-0.926697,0.041565,0.233093,0.291870,0.254363,2.928830,-2.772724,2.960425,1.702692,-11.970655,67.180095,66.418333,-11.770409,0.000000,0.000000,
175777606,66.790771,23.019829,2,-0.920715,0.038879,0.228821,0.313660,0.338031,3.117294,-2.907665,3.246545,1.685553,-12.016047,67.745970,66.256858,-11.931517,0.000000,0.000000,
175787331,66.899627,23.024367,2,-0.914795,0.035889,0.224670,0.333679,0.661744,2.919895,-3.309075,3.565716,1.157042,-12.234756,68.231185,66.039330,-12.130406,0.000000,0.000000,
175798359,68.001220,23.019829,2,-0.909058,0.032532,0.220764,0.351929,0.745483,3.311773,-3.913117,4.138726,1.181151,-12.694453,68.915572,65.872956,-12.500348,0.000000,0.000000,
175807682,68.327850,23.033442,2,-0.903381,0.028625,0.217163,0.368591,0.901496,2.866871,-4.084906,4.035658,0.628733,-12.808718,69.418972,65.684033,-12.702601,0.000000,0.000000,
175817547,68.699065,23.015292,2,-0.897888,0.024109,0.214111,0.383850,1.222783,2.831613,-4.568587,4.407695,0.219821,-13.108064,69.931433,65.471081,-12.968535,0.000000,0.000000,
175828315,69.211303,23.019829,2,-0.892578,0.019165,0.211609,0.397705,1.561519,2.375851,-4.555530,4.290791,-0.395098,-13.015245,70.500717,65.247494,-12.999173,0.000000,0.000000,
175837949,69.614684,23.019829,2,-0.887390,0.013672,0.209778,0.410339,1.635899,2.171203,-4.500321,4.157062,-0.625266,-12.951244,70.962641,65.018580,-12.967742,0.000000,0.000000,
175847733,69.320190,23.024367,2,-0.882324,0.007690,0.208557,0.421814,1.865146,1.765848,-5.226995,4.251457,-1.235851,-13.589427,71.290400,64.694311,-13.375493,0.000000,0.000000,
175858817,70.732665,23.024367,2,-0.877502,0.001343,0.208008,0.432129,1.668120,1.104909,-4.657777,3.431986,-1.419813,-13.246682,71.902120,64.482785,-13.291012,0.000000,0.000000,
175868250,71.027190,23.019829,2,-0.872803,-0.005249,0.208130,0.441467,1.889692,0.731128,-5.052753,3.413391,-1.899814,-13.593585,72.345735,64.250998,-13.489464,0.000000,0.000000,
175877985,71.354430,23.033442,2,-0.868164,-0.011963,0.208923,0.450012,1.884998,0.612674,-5.377025,3.445133,-2.012884,-13.911987,72.784817,64.000010,-13.766588,0.000000,0.000000,
175888967,72.145324,23.024367,2,-0.863525,-0.018738,0.210388,0.457947,1.920922,-0.148700,-4.881681,2.693611,-2.402916,-13.616448,73.366990,63.776324,-13.668118,0.000000,0.000000,
175898395,72.733978,23.015292,2,-0.858948,-0.025391,0.212402,0.465271,1.886856,-0.380314,-5.215737,2.630511,-2.547457,-13.980927,73.848975,63.569733,-13.873283,0.000000,0.000000,
175909206,72.641143,23.019829,2,-0.854431,-0.031860,0.214966,0.471985,1.425591,-0.568832,-5.173256,2.270014,-2.255447,-14.153061,74.308971,63.276349,-14.056786,0.000000,0.000000,
175918447,73.541564,23.015292,2,-0.849976,-0.038025,0.217834,0.478149,1.292084,-0.929790,-4.659485,1.737671,-2.242415,-13.822393,74.749288,63.058221,-13.903059,0.000000,0.000000,
175928105,73.961730,23.024367,2,-0.845642,-0.043579,0.221130,0.483765,1.412832,-1.086198,-5.356063,1.977024,-2.511217,-14.460118,75.210109,62.827309,-14.268420,0.000000,0.000000,
175939180,74.567107,23.024367,2,-0.841431,-0.048645,0.224670,0.489075,1.364457,-1.332035,-4.676259,1.504014,-2.482861,-13.936619,75.784598,62.598780,-14.050805,0.000000,0.000000,
175948579,74.769408,23.024367,2,-0.837158,-0.053162,0.228333,0.494141,1.079631,-1.878413,-4.705003,0.979752,-2.512129,-14.218631,76.182064,62.345774,-14.160882,0.000000,0.000000,
175958356,74.769408,23.024367,2,-0.833008,-0.057007,0.231995,0.499023,1.319037,-1.640854,-5.121668,1.469631,-2.643981,-14.436800,76.526325,62.040942,-14.341854,0.000000,0.000000,
175968993,75.576659,23.024367,2,-0.828857,-0.060303,0.235535,0.503845,1.196144,-1.781323,-4.587102,1.092975,-2.525118,-14.047827,77.007552,61.781886,-14.149015,0.000000,0.000000,
175978574,76.569183,23.015292,2,-0.824768,-0.062927,0.238892,0.508667,0.576971,-2.183164,-4.504760,0.508916,-2.168519,-14.317257,77.516683,61.593488,-14.259362,0.000000,0.000000,
175988199,76.695251,23.028904,2,-0.820801,-0.064941,0.241882,0.513428,0.309348,-1.788592,-5.024962,0.987080,-1.811675,-14.728021,77.954994,61.356713,-14.566744,0.000000,0.000000,
175999199,76.989440,23.024367,2,-0.816895,-0.066284,0.244568,0.518188,-0.370249,-1.659741,-4.494391,0.630491,-1.080265,-14.436192,78.448161,61.086987,-14.481123,0.000000,0.000000,
176008831,77.300780,23.028904,2,-0.813049,-0.067078,0.246948,0.522888,-0.204670,-1.841760,-4.806172,0.695205,-1.353229,-14.724734,78.820827,60.810734,-14.640905,0.000000,0.000000,
176018709,78.403472,23.024367,2,-0.809448,-0.067139,0.248901,0.527588,-0.495566,-1.001732,-4.940429,1.362180,-0.760608,-14.621445,79.342619,60.617889,-14.628144,0.000000,0.000000,
176029576,78.016357,23.033442,2,-0.806030,-0.066711,0.250427,0.532166,-0.706804,-0.969790,-4.644936,1.190916,-0.517466,-14.413556,79.751954,60.307809,-14.487408,0.000000,0.000000,
176038882,79.396270,23.015292,2,-0.802856,-0.065735,0.251343,0.536621,-0.689389,-0.373102,-5.196200,1.950037,-0.395899,-14.666495,80.245876,60.129472,-14.604867,0.000000,0.000000,
176048694,79.412383,23.024367,2,-0.799988,-0.064392,0.251648,0.540894,-0.697566,-0.311384,-4.994790,1.906841,-0.345518,-14.468214,80.679073,59.891165,-14.515244,0.000000,0.000000,
176059750,79.614776,23.024367,2,-0.797424,-0.062744,0.251465,0.544922,-0.749314,0.081848,-5.007073,2.213277,-0.160719,-14.347624,81.140923,59.609903,-14.405312,0.000000,0.000000,
176069163,80.220489,23.024367,2,-0.795349,-0.060913,0.250793,0.548523,-0.660332,0.251142,-5.386241,2.548945,-0.268125,-14.595791,81.528862,59.364333,-14.530245,0.000000,0.000000,
176078987,80.826751,23.024367,2,-0.793640,-0.059021,0.249695,0.551636,-0.571421,0.591410,-4.777018,2.552241,-0.130213,-13.918087,81.979898,59.146298,-14.128753,0.000000,0.000000,
176089791,80.826751,23.024367,2,-0.792419,-0.057007,0.248230,0.554321,-0.467669,0.499923,-4.712026,2.458063,-0.261936,-13.870954,82.402038,58.863349,-13.959675,0.000000,0.000000,
176099144,82.552276,23.028904,2,-0.791565,-0.055054,0.246399,0.556519,-0.247578,1.105268,-5.217993,3.236634,-0.338590,-14.032845,82.980122,58.749656,-14.007665,0.000000,0.000000,
176110169,81.945403,23.028904,2,-0.791016,-0.053345,0.244385,0.558350,0.062689,1.381039,-4.754265,3.322299,-0.444415,-13.440048,83.433129,58.481891,-13.635387,0.000000,0.000000,
176119560,82.535125,23.019829,2,-0.790710,-0.051880,0.242249,0.559814,0.156060,1.239107,-5.009290,3.320186,-0.638474,-13.706119,83.813408,58.247638,-13.681782,0.000000,0.000000,
176129259,83.141540,23.019829,2,-0.790771,-0.050659,0.239990,0.560791,0.136414,1.638650,-5.248677,3.741785,-0.518462,-13.797978,84.251857,58.036029,-13.757994,0.000000,0.000000,
176140196,83.856475,23.024367,2,-0.791199,-0.049622,0.237793,0.561279,0.549699,1.354241,-4.680919,3.337754,-0.887533,-13.279055,84.811739,57.845118,-13.443875,0.000000,0.000000,
176149668,84.353362,23.019829,2,-0.791748,-0.048950,0.235718,0.561401,0.224724,1.200138,-4.840002,3.170880,-0.670315,-13.592299,85.273131,57.662667,-13.541224,0.000000,0.000000,
176159227,85.178497,23.028904,2,-0.792480,-0.048523,0.233948,0.561157,0.344492,1.674545,-5.068116,3.701863,-0.640484,-13.608725,85.805982,57.521639,-13.585496,0.000000,0.000000,
176170046,84.773986,23.028904,2,-0.793396,-0.048767,0.232849,0.560242,0.678677,1.290809,-4.510526,3.215987,-0.975341,-13.145407,86.234250,57.261022,-13.296859,0.000000,0.000000,
176179518,85.582000,23.028904,2,-0.794556,-0.049316,0.232056,0.558960,0.768521,1.254937,-5.108536,3.459505,-1.163990,-13.670185,86.653803,57.055491,-13.541715,0.000000,0.000000,
176189348,86.778014,23.019829,2,-0.795776,-0.050110,0.231689,0.557251,1.080565,1.218850,-4.982566,3.465876,-1.422284,-13.471002,87.237269,56.937360,-13.495336,0.000000,0.000000,
176200191,85.783996,23.028904,2,-0.797058,-0.051147,0.231689,0.555298,1.157582,0.882187,-4.385604,2.951224,-1.492670,-13.032890,87.581650,56.629189,-13.192038,0.000000,0.000000,
176209814,86.373962,23.019829,2,-0.798401,-0.052368,0.232117,0.553162,0.975654,0.473847,-4.899255,2.786540,-1.554151,-13.674469,87.899645,56.356682,-13.508455,0.000000,0.000000,
176219513,87.291167,23.024367,2,-0.799683,-0.053650,0.232910,0.550781,1.006953,0.500609,-4.548099,2.682996,-1.494129,-13.338904,88.331673,56.157053,-13.397254,0.000000,0.000000,
176230561,88.099883,23.024367,2,-0.801025,-0.054993,0.234070,0.548218,0.973895,-0.074479,-4.362089,2.118291,-1.649640,-13.378936,88.907851,55.982633,-13.385241,0.000000,0.000000,
176239909,88.319091,23.033442,2,-0.802307,-0.056335,0.235657,0.545593,0.957457,-0.008069,-4.917826,2.442375,-1.687269,-13.837669,89.320221,55.784175,-13.681977,0.000000,0.000000,
176249719,88.504546,23.024367,2,-0.803528,-0.057556,0.237488,0.542786,1.118823,-0.433007,-4.275498,1.868507,-1.885359,-13.359393,89.714080,55.559092,-13.470407,0.000000,0.000000,
176260469,89.001159,23.019829,2,-0.804749,-0.058594,0.239563,0.539978,0.997715,-0.532185,-4.717533,1.971466,-1.887983,-13.812510,90.176970,55.328863,-13.694785,0.000000,0.000000,
176270084,89.312835,23.024367,2,-0.805908,-0.059387,0.241760,0.537170,0.812192,-0.299722,-4.645556,2.110363,-1.615521,-13.713389,90.546411,55.096380,-13.706991,0.000000,0.000000,
176279786,90.525420,23.024367,2,-0.807068,-0.059875,0.244019,0.534302,0.727968,-0.874684,-4.291662,1.463729,-1.723718,-13.617958,91.076388,54.961843,-13.648597,0.000000,0.000000,
176290884,90.214202,23.019829,2,-0.808228,-0.060059,0.246399,0.531494,0.703889,-0.510598,-4.685303,1.963586,-1.623779,-13.829242,91.523954,54.709606,-13.767080,0.000000,0.000000,
176300135,91.022643,23.019829,2,-0.809387,-0.059998,0.248657,0.528687,0.747498,-0.530410,-4.251822,1.781004,-1.600544,-13.434717,91.935575,54.526812,-13.549095,0.000000,0.000000,
176311055,91.132812,23.024367,2,-0.810486,-0.059570,0.250854,0.525940,0.498309,-0.777788,-4.414138,1.595095,-1.520622,-13.737588,92.379756,54.284530,-13.672725,0.000000,0.000000,
176320350,91.848296,23.028904,2,-0.811646,-0.058899,0.252930,0.523254,0.424397,-0.551216,-4.618625,1.868466,-1.399120,-13.847578,92.784136,54.093587,-13.787408,0.000000,0.000000,
176330213,92.235412,23.019829,2,-0.812805,-0.057922,0.254761,0.520630,0.394366,-0.509664,-4.149798,1.682159,-1.281993,-13.424995,93.214265,53.898018,-13.549715,0.000000,0.000000,
176340980,92.547210,23.024367,2,-0.814026,-0.056702,0.256470,0.518005,0.148399,-0.645826,-4.488528,1.663246,-1.209539,-13.847238,93.668805,53.672488,-13.744853,0.000000,0.000000,
176350447,93.044524,23.019829,3,-0.815369,-0.055176,0.257935,0.515381,0.074723,-0.203608,-4.602848,2.066849,-0.970043,-13.806515,94.059341,53.469106,-13.785298,0.000000,0.000000,
176360274,93.356353,23.024367,3,-0.816711,-0.053467,0.259155,0.512756,-0.010219,-0.439144,-4.129760,1.617380,-0.935178,-13.511654,94.452504,53.255509,-13.605827,0.000000,0.000000,
176371242,93.760680,23.024367,3,-0.818237,-0.051575,0.260193,0.510071,-0.274810,-0.085509,-4.626941,2.050579,-0.648010,-13.905496,94.906150,53.023853,-13.802373,0.000000,0.000000,
176380602,93.777831,23.033442,3,-0.819824,-0.049561,0.260986,0.507263,-0.073964,0.136534,-4.343812,2.164241,-0.668944,-13.513373,95.190463,52.765853,-13.612832,0.000000,0.000000,
176390468,95.378692,23.024367,3,-0.821533,-0.047485,0.261536,0.504333,-0.245186,-0.288098,-4.197685,1.689343,-0.713775,-13.599888,95.745638,52.653312,-13.604341,0.000000,0.000000,
176401481,95.176482,23.024367,3,-0.823425,-0.045410,0.261841,0.501343,-0.243009,0.229279,-4.594665,2.293351,-0.540863,-13.763839,96.218030,52.436551,-13.708954,0.000000,0.000000,
176410795,96.685027,23.019829,3,-0.825439,-0.043335,0.261902,0.498230,-0.068966,0.310281,-4.338697,2.287103,-0.612570,-13.450943,96.793359,52.365929,-13.539730,0.000000,0.000000,
176420496,96.188049,23.024367,3,-0.827515,-0.041321,0.261780,0.494995,-0.268899,-0.007834,-4.161676,1.866978,-0.575182,-13.480402,97.187388,52.165574,-13.500821,0.000000,0.000000,
176431623,96.406921,23.033442,3,-0.829712,-0.039307,0.261475,0.491577,-0.187780,0.359051,-4.458878,2.321457,-0.517772,-13.593237,97.620776,51.925173,-13.561437,0.000000,0.000000,
176441063,96.887267,23.019829,3,-0.832092,-0.037476,0.260986,0.487976,0.127228,0.442381,-3.900563,2.246808,-0.628833,-12.964103,97.972948,51.717398,-13.169668,0.000000,0.000000,
176450773,97.198669,23.024367,3,-0.834534,-0.035767,0.260315,0.484314,0.023132,0.121276,-4.255575,2.106996,-0.769907,-13.422537,98.329483,51.497880,-13.335520,0.000000,0.000000,
176461535,97.198669,23.024367,3,-0.837036,-0.034180,0.259583,0.480469,0.135862,0.650795,-4.321065,2.594994,-0.596804,-13.273322,98.671113,51.225569,-13.294731,0.000000,0.000000,
176470982,98.025329,23.033442,3,-0.839600,-0.032654,0.258789,0.476501,0.208467,0.429217,-4.057996,2.318307,-0.716513,-13.092629,99.033491,51.026961,-13.162182,0.000000,0.000000,
176480676,98.008178,23.024367,3,-0.842224,-0.031189,0.257996,0.472351,0.323222,0.614317,-4.301263,2.615253,-0.744728,-13.209447,99.335566,50.781334,-13.193186,0.000000,0.000000,
176491725,99.221770,23.024367,3,-0.844910,-0.029907,0.257202,0.468018,0.437494,0.343764,-3.956122,2.292372,-0.915082,-12.947692,99.874554,50.625186,-13.032174,0.000000,0.000000,
176501233,99.516631,23.019829,3,-0.847656,-0.028687,0.256531,0.463501,0.498799,0.461622,-4.153646,2.495874,-0.918929,-13.058095,100.288245,50.459371,-13.049176,0.000000,0.000000,
176511095,99.627380,23.024367,3,-0.850403,-0.027649,0.255920,0.458862,0.671969,0.621609,-4.267939,2.743289,-0.972639,-13.051077,100.661480,50.254669,-13.050425,0.000000,0.000000,
176522044,100.545776,23.028904,3,-0.853088,-0.026611,0.255493,0.454102,0.766833,0.319289,-3.752749,2.323169,-1.123289,-12.654100,101.189298,50.102707,-12.790488,0.000000,0.000000,
176531271,100.545776,23.028904,3,-0.855774,-0.025696,0.255188,0.449341,0.770891,0.357987,-4.227858,2.581960,-1.171476,-13.050419,101.530458,49.907118,-12.960972,0.000000,0.000000,
176541973,100.545776,23.028904,3,-0.858337,-0.024780,0.255066,0.444519,0.743318,0.457898,-4.235751,2.645014,-1.084510,-13.042652,101.879352,49.654717,-13.014547,0.000000,0.000000,
176551323,101.245788,23.024367,3,-0.860901,-0.023865,0.255188,0.439514,0.711996,0.291215,-3.828202,2.323155,-1.069701,-12.747527,102.224399,49.462074,-12.839420,0.000000,0.000000,
176561119,101.944823,23.019829,3,-0.863342,-0.023071,0.255493,0.434509,0.803052,0.179583,-4.095544,2.424436,-1.247989,-12.966564,102.655962,49.303071,-12.922811,0.000000,0.000000,
176572010,102.459228,23.024367,3,-0.865723,-0.022278,0.255981,0.429565,0.787250,0.325750,-3.851899,2.420285,-1.090929,-12.725420,103.155328,49.141969,-12.793349,0.000000,0.000000,
176581616,102.771850,23.028904,3,-0.867981,-0.021484,0.256714,0.424622,0.607649,0.013291,-3.764131,2.065268,-1.123856,-12.802322,103.554952,48.974504,-12.799236,0.000000,0.000000,
176591298,102.771850,23.028904,3,-0.870117,-0.020691,0.257629,0.419617,0.668805,0.280078,-4.121497,2.468159,-1.058442,-13.009376,103.881874,48.758563,-12.937064,0.000000,0.000000,
176602058,103.396606,23.037979,3,-0.872192,-0.019897,0.258728,0.414673,0.465516,0.115236,-3.917868,2.160802,-0.969572,-12.957661,104.314877,48.563752,-12.950575,0.000000,0.000000,
176611560,103.674407,23.024367,3,-0.874207,-0.019043,0.260010,0.409607,0.543728,-0.140180,-3.838831,1.998635,-1.177309,-12.912750,104.655778,48.366883,-12.925770,0.000000,0.000000,
176621462,103.783660,23.028904,3,-0.876160,-0.018127,0.261414,0.404541,0.651098,0.016227,-4.079595,2.297489,-1.192438,-13.028260,104.970773,48.138004,-12.992994,0.000000,0.000000,
176632519,104.188903,23.028904,3,-0.878113,-0.017151,0.262817,0.399414,0.601005,-0.158687,-3.671071,1.962233,-1.192665,-12.730065,105.355788,47.907759,-12.820550,0.000000,0.000000,
176641978,104.795531,23.028904,3,-0.880005,-0.016052,0.264282,0.394287,0.542798,-0.149048,-3.729952,1.981981,-1.160250,-12.798265,105.703391,47.721395,-12.805937,0.000000,0.000000,
176651664,105.015594,23.037979,3,-0.881897,-0.014893,0.265808,0.389099,0.655600,-0.063071,-3.945276,2.220278,-1.208795,-12.898786,106.036213,47.517334,-12.866836,0.000000,0.000000,
176662762,105.605621,23.028904,3,-0.883728,-0.013611,0.267334,0.383850,0.357201,-0.165600,-3.578262,1.823646,-1.004640,-12.741340,106.482111,47.326672,-12.784529,0.000000,0.000000,
176672137,105.808044,23.028904,3,-0.885559,-0.012268,0.268860,0.378662,0.275300,-0.417713,-3.850895,1.757242,-1.182276,-13.054019,106.798903,47.125570,-12.961282,0.000000,0.000000,
176681855,106.617675,23.028904,3,-0.887329,-0.010742,0.270325,0.373413,0.327239,0.033765,-3.967926,2.153010,-0.918773,-13.026614,107.222316,46.978158,-13.004132,0.000000,0.000000,
176692770,107.521087,23.024367,3,-0.889160,-0.009216,0.271729,0.368103,0.123299,-0.270174,-3.605261,1.662372,-0.938652,-12.871296,107.790288,46.871732,-12.917008,0.000000,0.000000,
176702280,107.630370,23.028904,3,-0.890930,-0.007507,0.273010,0.362854,-0.016259,-0.161130,-3.966052,1.842947,-0.841730,-13.215517,108.205465,46.727374,-13.112792,0.000000,0.000000,
176712972,107.833343,23.028904,3,-0.892700,-0.005737,0.274231,0.357544,0.013269,-0.116318,-3.596712,1.712202,-0.761568,-12.877483,108.634628,46.546902,-12.958461,0.000000,0.000000,
176722416,108.237701,23.028904,3,-0.894531,-0.003784,0.275208,0.352234,0.017056,-0.184979,-3.473098,1.619094,-0.795190,-12.778936,108.999291,46.380164,-12.840718,0.000000,0.000000,
176732004,108.347533,23.033442,3,-0.896362,-0.001831,0.276062,0.346924,0.094165,0.150481,-3.974044,2.122392,-0.692176,-13.097124,109.321350,46.179849,-13.008889,0.000000,0.000000,
176743064,109.250549,23.028904,3,-0.898193,0.000183,0.276794,0.341492,0.157669,0.016733,-3.590362,1.894763,-0.767118,-12.758067,109.818068,46.030569,-12.844383,0.000000,0.000000,
176752423,109.748168,23.024367,3,-0.900085,0.002197,0.277283,0.335999,0.065582,-0.042471,-3.603669,1.815228,-0.755957,-12.817294,110.235214,45.902509,-12.826617,0.000000,0.000000,
176762243,109.157378,23.033442,3,-0.902039,0.004211,0.277649,0.330505,0.056284,0.130795,-3.932501,2.079387,-0.683415,-13.072031,110.483543,45.650841,-12.987581,0.000000,0.000000,
176772929,109.765350,23.033442,3,-0.903931,0.006226,0.277893,0.324951,0.182064,0.152286,-3.375943,1.891777,-0.637051,-12.538302,110.836166,45.434834,-12.692916,0.000000,0.000000,
176782545,110.078185,23.037979,3,-0.905945,0.008240,0.277954,0.319336,0.127920,-0.082565,-3.650442,1.851061,-0.836306,-12.831550,111.130492,45.223846,-12.783845,0.000000,0.000000,
176792231,110.888183,23.037979,3,-0.907898,0.010254,0.277893,0.313599,0.299057,0.341261,-3.786671,2.276520,-0.618752,-12.791372,111.522566,45.072208,-12.788783,0.000000,0.000000,
176803310,110.777801,23.033442,3,-0.909912,0.012268,0.277771,0.307800,0.349684,0.115796,-3.336176,1.961481,-0.738842,-12.428177,111.881675,44.849598,-12.552276,0.000000,0.000000,
176812578,111.681060,23.028904,3,-0.911926,0.014221,0.277466,0.301941,0.201574,-0.028368,-3.675752,1.954682,-0.839985,-12.808012,112.259197,44.707470,-12.720007,0.000000,0.000000,
176822428,111.883575,23.028904,3,-0.913940,0.016174,0.277161,0.296021,0.309319,0.442965,-3.736320,2.312435,-0.515634,-12.741256,112.628625,44.539048,-12.733945,0.000000,0.000000,
176833231,112.491180,23.028904,3,-0.915894,0.018066,0.276855,0.290100,0.484393,0.002245,-3.269824,1.954929,-0.885428,-12.312930,113.083337,44.390221,-12.457815,0.000000,0.000000,
176842730,112.601012,23.033442,3,-0.917786,0.019897,0.276550,0.284241,0.507177,0.031281,-3.646120,2.177652,-0.939142,-12.612575,113.414077,44.214549,-12.559319,0.000000,0.000000,
176852527,113.098785,23.028904,3,-0.919678,0.021729,0.276245,0.278259,0.545553,-0.014156,-3.367700,2.044513,-0.932697,-12.373068,113.787632,44.057265,-12.437164,0.000000,0.000000,
176863623,113.411224,23.033442,3,-0.921509,0.023560,0.275940,0.272339,0.443179,-0.042416,-3.511210,2.033934,-0.926991,-12.548361,114.205204,43.875188,-12.510096,0.000000,0.000000,
176872929,114.018890,23.033442,3,-0.923218,0.025269,0.275696,0.266418,0.307183,0.226669,-3.698618,2.167349,-0.667366,-12.749613,114.578036,43.734759,-12.667189,0.000000,0.000000,
176883912,114.112121,23.028904,3,-0.924988,0.027039,0.275574,0.260315,0.528038,-0.080254,-3.135843,1.898109,-0.919734,-12.185650,114.970365,43.547392,-12.351365,0.000000,0.000000,
176893281,114.516753,23.028904,3,-0.926636,0.028809,0.275452,0.254211,0.464520,-0.062066,-3.529563,2.064570,-0.943722,-12.548245,115.292803,43.376908,-12.480494,0.000000,0.000000,
176903006,115.327087,23.028904,3,-0.928284,0.030579,0.275391,0.248047,0.500776,0.109930,-3.652570,2.230768,-0.830705,-12.623610,115.720460,43.258075,-12.574359,0.000000,0.000000,
176913917,115.327087,23.028904,3,-0.929871,0.032349,0.275330,0.241821,0.274863,-0.162916,-3.292154,1.760760,-0.893805,-12.448735,116.118028,43.077332,-12.491968,0.000000,0.000000,
176923285,115.733306,23.028904,3,-0.931396,0.034180,0.275330,0.235596,0.568670,-0.016876,-3.593912,2.202722,-0.943836,-12.537123,116.448953,42.915239,-12.521585,0.000000,0.000000,
176932913,116.045806,23.033442,3,-0.932861,0.036011,0.275391,0.229309,0.435797,-0.025509,-3.119317,1.866583,-0.795110,-12.210905,116.786120,42.751596,-12.317822,0.000000,0.000000,
176943994,116.653136,23.033442,3,-0.934326,0.037903,0.275513,0.222900,0.382865,-0.017953,-3.512315,2.026300,-0.847769,-12.562395,117.234163,42.597415,-12.478230,0.000000,0.000000,
176953454,116.746368,23.028904,3,-0.935730,0.039795,0.275635,0.216431,0.497400,0.112661,-3.446323,2.148837,-0.749759,-12.439061,117.545198,42.423208,-12.452542,0.000000,0.000000,
176963160,116.746368,23.028904,3,-0.937073,0.041809,0.275757,0.210022,0.437859,-0.058227,-3.077306,1.855257,-0.809559,-12.166790,117.806840,42.213699,-12.265129,0.000000,0.000000,
176974010,117.261535,23.033442,3,-0.938354,0.043762,0.275879,0.203674,0.321073,0.009892,-3.435042,1.968011,-0.767512,-12.526749,118.161983,42.015834,-12.436720,0.000000,0.000000,
176983435,118.072082,23.033442,3,-0.939575,0.045715,0.276062,0.197327,0.350952,0.127889,-3.484647,2.070797,-0.678602,-12.551184,118.540580,41.887101,-12.511794,0.000000,0.000000,
176993126,118.164825,23.028904,3,-0.940735,0.047668,0.276245,0.190918,0.243224,-0.182283,-3.024652,1.638527,-0.835679,-12.220468,118.875609,41.725785,-12.320724,0.000000,0.000000,
177004244,118.385680,23.037979,3,-0.941833,0.049744,0.276428,0.184570,0.374232,0.091802,-3.540980,2.105663,-0.726374,-12.575080,119.246970,41.530484,-12.487550,0.000000,0.000000,
177013738,118.772765,23.028904,3,-0.942932,0.051819,0.276611,0.178162,0.297349,0.220196,-3.019681,1.839366,-0.472702,-12.181010,119.551885,41.359951,-12.286502,0.000000,0.000000,
177023483,118.680572,23.033442,3,-0.943970,0.053955,0.276733,0.171692,0.265181,-0.328937,-3.032439,1.618461,-0.989289,-12.202203,119.791219,41.141213,-12.231217,0.000000,0.000000,
177034228,119.288543,23.033442,3,-0.944946,0.056030,0.276855,0.165222,0.357760,0.266499,-3.407826,2.095646,-0.524547,-12.477797,120.138404,40.949936,-12.392943,0.000000,0.000000,
177043629,119.491241,23.033442,3,-0.945923,0.058167,0.276917,0.158691,0.334226,-0.018000,-2.872632,1.713292,-0.682987,-12.027580,120.401649,40.762201,-12.153316,0.000000,0.000000,
177053406,119.786651,23.028904,3,-0.946838,0.060303,0.276978,0.152222,0.185699,-0.131215,-3.352394,1.804880,-0.840545,-12.513008,120.684447,40.569738,-12.389229,0.000000,0.000000,
177064449,120.782897,23.019829,3,-0.947693,0.062500,0.276978,0.145752,0.223909,0.185504,-3.113955,1.815521,-0.508288,-12.295169,121.150151,40.445103,-12.327538,0.000000,0.000000,
177073978,120.504638,23.033442,3,-0.948547,0.064636,0.276917,0.139282,0.194641,-0.094477,-2.864108,1.586538,-0.714127,-12.092112,121.414083,40.255156,-12.173132,0.000000,0.000000,
177084928,121.408752,23.028904,3,-0.949341,0.066772,0.276855,0.132874,0.224408,0.109761,-3.373056,1.930861,-0.621652,-12.506588,121.853114,40.117721,-12.391835,0.000000,0.000000,
177094163,120.707336,23.033442,3,-0.950073,0.068970,0.276733,0.126404,0.213785,0.183080,-3.074278,1.791137,-0.495742,-12.269875,122.008401,39.871019,-12.311851,0.000000,0.000000,
177103862,122.329589,23.033442,3,-0.950806,0.071167,0.276550,0.119934,0.214889,-0.089628,-2.943462,1.647864,-0.726115,-12.138003,122.454679,39.790036,-12.197828,0.000000,0.000000,
177114763,121.924651,23.033442,3,-0.951538,0.073364,0.276245,0.113403,0.204498,0.108137,-3.333295,1.896336,-0.611132,-12.483940,122.788409,39.593798,-12.385482,0.000000,0.000000,
177124109,122.515105,23.024367,3,-0.952209,0.075562,0.275940,0.106873,0.128709,0.212032,-2.750996,1.559580,-0.376942,-12.053233,123.106751,39.449662,-12.167571,0.000000,0.000000,
177133958,122.920074,23.024367,3,-0.952881,0.077698,0.275574,0.100342,0.456482,0.098932,-3.238125,2.049401,-0.628979,-12.267250,123.459746,39.307566,-12.232948,0.000000,0.000000,
177144995,123.030578,23.028904,3,-0.953491,0.079895,0.275146,0.093811,0.531967,0.314133,-2.981979,2.029008,-0.382045,-12.036015,123.812475,39.125844,-12.103788,0.000000,0.000000,
177154464,123.232787,23.028904,3,-0.954041,0.082031,0.274658,0.087280,0.083333,0.295494,-2.776903,1.552098,-0.295709,-12.104308,124.073813,38.944012,-12.104132,0.000000,0.000000,
177164023,123.436065,23.028904,3,-0.954590,0.084229,0.274048,0.080750,0.215445,0.296871,-3.162415,1.852028,-0.385435,-12.361584,124.326110,38.752818,-12.272990,0.000000,0.000000,
177174761,124.154845,23.033442,3,-0.955139,0.086426,0.273438,0.074097,0.237034,0.244659,-3.020786,1.788912,-0.406768,-12.226688,124.709466,38.602077,-12.242623,0.000000,0.000000,
177184277,125.058196,23.028904,3,-0.955627,0.088440,0.272888,0.067383,0.119123,0.116777,-2.880531,1.587791,-0.494885,-12.161144,125.141563,38.526527,-12.189182,0.000000,0.000000,
177194159,124.653167,23.028904,3,-0.955994,0.090454,0.272339,0.060608,0.439026,0.166288,-3.096018,1.978486,-0.506784,-12.178781,125.430264,38.350541,-12.182362,0.000000,0.000000,
177205061,124.855437,23.028904,3,-0.956421,0.092407,0.271790,0.053833,0.324116,0.095136,-2.822918,1.732332,-0.512249,-12.002366,125.739998,38.154268,-12.064310,0.000000,0.000000,
177214599,125.464812,23.028904,3,-0.956726,0.094238,0.271301,0.046997,0.231297,0.259798,-2.727068,1.625268,-0.322775,-11.989260,126.051823,38.008111,-12.015088,0.000000,0.000000,
177224328,125.261504,23.028904,3,-0.956970,0.096130,0.270813,0.040100,0.441303,0.153075,-3.173591,2.018910,-0.514038,-12.238176,126.273050,37.798637,-12.161408,0.000000,0.000000,
177235399,125.574310,23.033442,3,-0.957214,0.097900,0.270264,0.033203,0.343011,0.087086,-2.743903,1.707393,-0.482736,-11.922686,126.559915,37.587051,-12.004841,0.000000,0.000000,
177244699,126.182708,23.033442,3,-0.957397,0.099670,0.269714,0.026245,0.375476,-0.036026,-2.930747,1.817029,-0.636406,-12.042687,126.838287,37.431260,-12.029664,0.000000,0.000000,
177254548,126.385497,23.033442,3,-0.957520,0.101440,0.269226,0.019348,0.543609,-0.032699,-3.140044,2.070031,-0.667258,-12.132835,127.121584,37.260061,-12.097333,0.000000,0.000000,
177265310,126.791137,23.033442,3,-0.957581,0.103149,0.268799,0.012390,0.491070,-0.196012,-2.634151,1.756115,-0.715752,-11.709772,127.460026,37.096291,-11.843145,0.000000,0.000000,
177274839,126.588836,23.033442,3,-0.957581,0.104919,0.268311,0.005310,0.386465,-0.193167,-2.799876,1.749038,-0.742383,-11.896525,127.649793,36.882303,-11.878159,0.000000,0.000000,
177285685,127.400115,23.033442,3,-0.957520,0.106628,0.267883,-0.001709,0.584206,0.138967,-2.909223,2.004359,-0.420043,-11.951925,128.002339,36.724182,-11.926541,0.000000,0.000000,
177295120,127.695770,23.028904,3,-0.957458,0.108398,0.267395,-0.008789,0.270366,0.007583,-2.647694,1.593015,-0.510205,-11.872427,128.290871,36.576639,-11.891051,0.000000,0.000000,
177304788,128.617706,23.033442,3,-0.957275,0.110107,0.266968,-0.015808,0.360497,-0.077937,-2.995833,1.854950,-0.649299,-12.097745,128.705110,36.497054,-12.026614,0.000000,0.000000,
177315889,127.602447,23.033442,3,-0.957031,0.111938,0.266541,-0.022827,0.440541,-0.172349,-2.635341,1.731385,-0.653532,-11.732130,128.903018,36.241394,-11.833475,0.000000,0.000000,
177325092,128.820556,23.033442,3,-0.956726,0.113770,0.266113,-0.029846,0.530376,-0.232581,-2.464609,1.729144,-0.660119,-11.530710,129.220626,36.125858,-11.634901,0.000000,0.000000,
177334913,129.115722,23.028904,3,-0.956360,0.115601,0.265747,-0.036865,0.401579,-0.097576,-3.034151,1.908878,-0.651583,-12.098331,129.555179,35.995111,-11.938851,0.000000,0.000000,
177345732,129.023406,23.033442,3,-0.955933,0.117493,0.265381,-0.043762,0.456737,-0.171218,-2.429262,1.653557,-0.587386,-11.550688,129.844365,35.809608,-11.684269,0.000000,0.000000,
177355186,129.927215,23.028904,3,-0.955444,0.119324,0.265137,-0.050720,0.666723,-0.428481,-2.696146,1.986498,-0.846018,-11.595979,130.197912,35.709568,-11.626362,0.000000,0.000000,
177365058,130.037261,23.033442,3,-0.954895,0.121277,0.264893,-0.057617,0.450386,-0.039696,-2.725175,1.805179,-0.507359,-11.833550,130.519778,35.574446,-11.762251,0.000000,0.000000,
177376058,129.834899,23.033442,3,-0.954224,0.123291,0.264709,-0.064392,0.289790,-0.492046,-2.488437,1.576885,-0.918397,-11.588138,130.782124,35.369039,-11.648058,0.000000,0.000000,
177385342,130.553588,23.037979,3,-0.953552,0.125305,0.264587,-0.071167,0.479537,-0.355410,-2.925420,1.960745,-0.833565,-11.891839,131.067157,35.232050,-11.807948,0.000000,0.000000,
177395178,131.237395,23.024367,3,-0.952759,0.127441,0.264526,-0.077881,0.111887,-0.060844,-2.718185,1.528525,-0.584407,-11.974408,131.444981,35.133681,-11.917123,0.000000,0.000000,
177406225,131.144561,23.028904,3,-0.951904,0.129639,0.264465,-0.084534,0.271819,-0.510108,-2.486656,1.583818,-0.932590,-11.574163,131.776142,34.971533,-11.692187,0.000000,0.000000,
177415639,132.067321,23.033442,3,-0.950989,0.131897,0.264465,-0.091125,0.284821,-0.116504,-2.922645,1.797009,-0.633834,-12.040344,132.159363,34.891790,-11.920531,0.000000,0.000000,
177425322,132.160155,23.028904,3,-0.950012,0.134277,0.264404,-0.097595,0.190922,-0.129950,-2.428592,1.467187,-0.572891,-11.668716,132.496832,34.778904,-11.755374,0.000000,0.000000,
177436441,131.974456,23.037979,3,-0.948975,0.136780,0.264404,-0.104065,0.240955,-0.088490,-2.747366,1.667910,-0.583128,-11.915451,132.784952,34.587171,-11.860365,0.000000,0.000000,
177445885,131.864379,23.033442,3,-0.947876,0.139343,0.264343,-0.110413,0.455793,0.022522,-2.779588,1.856210,-0.422819,-11.875994,132.938592,34.368234,-11.870620,0.000000,0.000000,
177456742,132.472655,23.033442,3,-0.946777,0.142029,0.264221,-0.116760,0.345033,-0.246714,-2.342614,1.573638,-0.614934,-11.482123,133.223770,34.190123,-11.615819,0.000000,0.000000,
177465988,132.879028,23.033442,3,-0.945618,0.144775,0.264038,-0.123047,0.429806,-0.012790,-2.795905,1.856945,-0.460938,-11.880863,133.474786,34.040127,-11.789655,0.000000,0.000000,
177475724,133.192565,23.037979,3,-0.944397,0.147583,0.263794,-0.129272,0.368984,0.006836,-2.737622,1.772258,-0.451902,-11.870932,133.752802,33.892349,-11.842963,0.000000,0.000000,
177486604,133.377258,23.028904,3,-0.943176,0.150330,0.263550,-0.135559,0.231665,-0.152813,-2.427318,1.527957,-0.576970,-11.623073,134.050541,33.723168,-11.698746,0.000000,0.000000,
177495937,133.893768,23.033442,3,-0.941895,0.153137,0.263245,-0.141907,0.350918,0.236176,-2.795757,1.753819,-0.257558,-12.001136,134.335381,33.592945,-11.897075,0.000000,0.000000,
177505733,134.189086,23.028904,3,-0.940552,0.155945,0.262878,-0.148254,0.314626,0.126868,-2.373250,1.518377,-0.280577,-11.636090,134.636528,33.462310,-11.725904,0.000000,0.000000,
177516810,134.004363,23.037979,3,-0.939148,0.158752,0.262512,-0.154602,0.153881,0.141614,-2.745521,1.587428,-0.409125,-12.018368,134.888048,33.257657,-11.917725,0.000000,0.000000,
177526263,134.299682,23.033442,3,-0.937683,0.161560,0.262207,-0.160950,0.562521,0.120412,-2.661601,1.877481,-0.262260,-11.753110,135.091698,33.078534,-11.809762,0.000000,0.000000,
177535952,135.112121,23.033442,3,-0.936218,0.164307,0.261780,-0.167297,0.198826,0.347929,-2.350548,1.368694,-0.129830,-11.750935,135.415470,32.967015,-11.771179,0.000000,0.000000,
177546627,135.112121,23.033442,3,-0.934692,0.167053,0.261292,-0.173767,0.095404,0.362061,-2.654847,1.437213,-0.228805,-12.045977,135.709893,32.804080,-11.951412,0.000000,0.000000,
177556062,135.610442,23.028904,3,-0.933105,0.169800,0.260803,-0.180237,0.280989,0.308653,-2.427185,1.478600,-0.156357,-11.760220,136.000262,32.681745,-11.826015,0.000000,0.000000,
177565742,135.112121,23.033442,3,-0.931458,0.172424,0.260254,-0.186768,0.323766,0.021951,-2.403974,1.572476,-0.378072,-11.608186,136.149874,32.468485,-11.683151,0.000000,0.000000,
177576282,135.721069,23.033442,3,-0.929749,0.175110,0.259705,-0.193420,0.199663,0.275411,-2.649243,1.544831,-0.274556,-11.964187,136.411150,32.294012,-11.867476,0.000000,0.000000,
177586091,135.924072,23.033442,3,-0.928040,0.177673,0.259094,-0.200134,0.339190,0.264034,-2.178627,1.401892,-0.105791,-11.526066,136.636187,32.125325,-11.643558,0.000000,0.000000,
177596071,136.939086,23.033442,3,-0.926208,0.180115,0.258484,-0.206909,0.421629,0.048929,-2.594495,1.749204,-0.341865,-11.726671,137.012914,32.042774,-11.698068,0.000000,0.000000,
177606940,137.235015,23.028904,3,-0.924377,0.182556,0.257874,-0.213684,0.199001,0.384521,-2.560021,1.462122,-0.154141,-11.936926,137.402071,31.938385,-11.854726,0.000000,0.000000,
177616434,137.142120,23.033442,3,-0.922546,0.184875,0.257202,-0.220398,0.460944,0.092940,-2.225240,1.564472,-0.199400,-11.434355,137.656103,31.799914,-11.579019,0.000000,0.000000,
177627438,137.751189,23.033442,3,-0.920654,0.187134,0.256409,-0.227112,0.281259,0.097843,-2.576740,1.624524,-0.359791,-11.796810,138.023121,31.681053,-11.721861,0.000000,0.000000,
177636889,137.548705,23.033442,3,-0.918701,0.189392,0.255676,-0.233948,0.340458,0.276127,-2.327099,1.473598,-0.126280,-11.655311,138.233123,31.515755,-11.678215,0.000000,0.000000,
177646521,137.658294,23.037979,3,-0.916748,0.191528,0.254883,-0.240784,0.463299,0.045554,-2.123034,1.528821,-0.199215,-11.337021,138.428536,31.340664,-11.454439,0.000000,0.000000,
177657459,138.359801,23.033442,3,-0.914673,0.193665,0.254028,-0.247498,0.422965,0.275056,-2.633003,1.700154,-0.148489,-11.867564,138.757739,31.203216,-11.725395,0.000000,0.000000,
177666826,138.766936,23.033442,3,-0.912659,0.195801,0.253235,-0.254272,0.556097,0.377308,-2.358514,1.603816,0.072524,-11.652188,139.051235,31.095163,-11.677381,0.000000,0.000000,
177676459,139.265960,23.028904,3,-0.910522,0.197754,0.252319,-0.261047,0.462618,0.322292,-2.303341,1.519171,-0.007182,-11.626446,139.390431,31.007656,-11.643973,0.000000,0.000000,
177687649,138.970000,23.033442,3,-0.908386,0.199707,0.251465,-0.267761,0.277934,0.153449,-2.659956,1.645458,-0.329471,-11.888903,139.657912,30.827137,-11.804617,0.000000,0.000000,
177696880,140.188415,23.033442,3,-0.906250,0.201538,0.250671,-0.274414,0.274074,0.347484,-2.184570,1.291606,-0.065482,-11.612917,140.041365,30.781496,-11.678884,0.000000,0.000000,
177706699,140.392028,23.033442,3,-0.903992,0.203308,0.249878,-0.281128,0.294011,-0.112327,-2.274378,1.550984,-0.418333,-11.447250,140.408707,30.709013,-11.526961,0.000000,0.000000,
177717592,141.000762,23.033442,3,-0.901733,0.204956,0.249146,-0.287842,0.208434,0.264936,-2.530550,1.477220,-0.238395,-11.869548,140.853379,30.647037,-11.751651,0.000000,0.000000,
177727091,141.517669,23.037979,3,-0.899353,0.206482,0.248413,-0.294556,0.498903,0.078453,-2.087005,1.507421,-0.093373,-11.321562,141.268431,30.616319,-11.469566,0.000000,0.000000,
177736810,141.610076,23.033442,3,-0.897034,0.207947,0.247620,-0.301331,0.428363,-0.061475,-2.437962,1.716246,-0.310369,-11.558013,141.629397,30.542955,-11.527574,0.000000,0.000000,
177747943,141.203857,23.033442,3,-0.894653,0.209351,0.246887,-0.307983,0.316102,0.123486,-2.451628,1.567868,-0.247744,-11.704694,141.888996,30.364457,-11.643743,0.000000,0.000000,
177757195,141.499908,23.028904,3,-0.892273,0.210632,0.246155,-0.314514,0.301585,-0.249649,-2.027149,1.481860,-0.421591,-11.171944,142.096586,30.216226,-11.334307,0.000000,0.000000,
177767065,141.721282,23.037979,3,-0.889832,0.211975,0.245422,-0.320984,0.285981,-0.245137,-2.302514,1.631862,-0.481741,-11.399532,142.324004,30.060957,-11.377087,0.000000,0.000000,
177777746,142.126983,23.037979,3,-0.887329,0.213257,0.244690,-0.327515,0.137256,-0.216697,-2.263266,1.500773,-0.546378,-11.431213,142.607535,29.916486,-11.412588,0.000000,0.000000,
177787357,142.811584,23.024367,3,-0.884827,0.214478,0.243958,-0.334045,0.058965,-0.245276,-2.072913,1.351738,-0.568770,-11.283776,142.932764,29.831560,-11.328103,0.000000,0.000000,
177797057,143.439269,23.033442,3,-0.882202,0.215820,0.243225,-0.340515,0.271453,-0.051897,-2.397017,1.590532,-0.359318,-11.582690,143.316390,29.776960,-11.495077,0.000000,0.000000,
177808160,143.031951,23.033442,3,-0.879578,0.217224,0.242493,-0.346924,-0.110540,-0.093874,-1.974775,1.119108,-0.563370,-11.329919,143.593040,29.618836,-11.386756,0.000000,0.000000,
177817440,143.845031,23.033442,3,-0.876892,0.218689,0.241760,-0.353271,-0.099861,-0.397507,-2.303526,1.477184,-0.824407,-11.421160,143.914611,29.542008,-11.409319,0.000000,0.000000,
177828396,144.251342,23.033442,3,-0.874146,0.220276,0.241028,-0.359558,0.205010,-0.113994,-2.164738,1.448456,-0.377681,-11.382054,144.300670,29.455647,-11.391436,0.000000,0.000000,
177837597,144.768920,23.037979,3,-0.871338,0.221863,0.240234,-0.365784,-0.186778,-0.235751,-1.942125,1.138011,-0.696259,-11.237397,144.658935,29.406585,-11.290404,0.000000,0.000000,
177847430,144.158904,23.037979,3,-0.868530,0.223572,0.239380,-0.371948,0.184317,-0.319015,-2.245644,1.596819,-0.529556,-11.337361,144.853940,29.238200,-11.321204,0.000000,0.000000,
177858208,145.064544,23.033442,3,-0.865662,0.225403,0.238464,-0.378174,0.113290,0.061149,-2.197563,1.320729,-0.334877,-11.529900,145.207829,29.137900,-11.458080,0.000000,0.000000,
177867658,144.453979,23.033442,3,-0.862732,0.227234,0.237488,-0.384277,-0.008519,-0.184400,-1.801709,1.151967,-0.491902,-11.104873,145.341524,28.946260,-11.226426,0.000000,0.000000,
177877434,145.360168,23.028904,3,-0.859802,0.229248,0.236511,-0.390198,0.122391,-0.026682,-2.318176,1.444512,-0.404968,-11.567301,145.627425,28.835300,-11.449995,0.000000,0.000000,
177888552,145.581634,23.037979,3,-0.856812,0.231323,0.235413,-0.396118,0.043924,-0.091853,-1.918352,1.211799,-0.417751,-11.237922,145.938754,28.705070,-11.310903,0.000000,0.000000,
177897961,145.877288,23.033442,3,-0.853821,0.233521,0.234253,-0.401978,0.038463,-0.252544,-1.963865,1.326625,-0.528726,-11.178967,146.196837,28.592828,-11.224371,0.000000,0.000000,
177907687,145.674102,23.033442,3,-0.850769,0.235779,0.233032,-0.407776,0.051814,-0.103922,-2.369633,1.490455,-0.518432,-11.577086,146.376508,28.420559,-11.455708,0.000000,0.000000,
177918707,146.283172,23.033442,3,-0.847717,0.238098,0.231689,-0.413574,0.092540,-0.231726,-1.799330,1.253009,-0.436080,-11.046399,146.671568,28.288056,-11.187255,0.000000,0.000000,
177928145,145.488677,23.042517,3,-0.844604,0.240417,0.230347,-0.419312,0.076344,-0.232857,-2.005408,1.372512,-0.484919,-11.206105,146.716461,28.045433,-11.199624,0.000000,0.000000,
177937748,146.782043,23.028904,3,-0.841431,0.242859,0.228943,-0.424988,0.044268,-0.053648,-2.147620,1.331571,-0.450833,-11.429666,146.997521,27.943143,-11.350501,0.000000,0.000000,
177948844,147.300262,23.033442,3,-0.838257,0.245300,0.227417,-0.430603,0.303264,-0.303486,-1.845759,1.443174,-0.294507,-10.998410,147.363612,27.855217,-11.119574,0.000000,0.000000,
177958272,148.001891,23.028904,3,-0.835083,0.247803,0.225952,-0.436157,0.271109,-0.090102,-2.167748,1.483171,-0.286795,-11.386467,147.745277,27.821579,-11.294618,0.000000,0.000000,
177969163,147.909423,23.033442,3,-0.831848,0.250305,0.224365,-0.441650,0.213342,0.084728,-1.876693,1.176731,-0.189294,-11.273697,148.078365,27.717518,-11.280896,0.000000,0.000000,
177978464,147.189513,23.028904,3,-0.828552,0.252869,0.222778,-0.447144,0.110009,-0.183521,-1.931399,1.317941,-0.414493,-11.160884,148.169175,27.510741,-11.202188,0.000000,0.000000,
177988191,148.204620,23.028904,3,-0.825195,0.255554,0.221130,-0.452576,0.233567,-0.106563,-2.165798,1.476038,-0.330197,-11.369371,148.442863,27.404194,-11.311838,0.000000,0.000000,
177999082,148.112670,23.033442,3,-0.821838,0.258240,0.219482,-0.457947,0.356405,-0.008348,-1.831835,1.276306,-0.097989,-11.161686,148.678831,27.245125,-11.213359,0.000000,0.000000,
178008408,148.630431,23.037979,3,-0.818359,0.260925,0.217834,-0.463379,0.349057,-0.099728,-2.128832,1.511303,-0.217023,-11.334673,148.923356,27.133787,-11.292925,0.000000,0.000000,
178018138,148.519653,23.033442,3,-0.814941,0.263611,0.216187,-0.468689,0.222189,-0.005521,-1.967612,1.284083,-0.250826,-11.283989,149.111276,26.978122,-11.287066,0.000000,0.000000,
178029230,148.943938,23.042517,3,-0.811462,0.266296,0.214539,-0.473938,0.322064,-0.064134,-1.826660,1.290641,-0.152054,-11.129833,149.378503,26.835670,-11.183942,0.000000,0.000000,
178038720,149.239654,23.037979,3,-0.807922,0.268921,0.212891,-0.479187,0.407016,-0.076805,-2.229933,1.574222,-0.176028,-11.418725,149.606639,26.711176,-11.337930,0.000000,0.000000,
178048371,149.849975,23.037979,3,-0.804321,0.271545,0.211304,-0.484436,0.285513,0.107327,-1.633949,1.039558,-0.079295,-11.095877,149.909475,26.631875,-11.179174,0.000000,0.000000,
178059306,149.941955,23.033442,3,-0.800720,0.274170,0.209656,-0.489624,0.382294,-0.089404,-1.815656,1.332413,-0.108463,-11.099740,150.206116,26.514146,-11.127076,0.000000,0.000000,
178068642,150.441528,23.028904,3,-0.797058,0.276794,0.208008,-0.494812,0.359432,0.233903,-2.068305,1.250016,-0.074356,-11.501636,150.497223,26.433775,-11.372737,0.000000,0.000000,
178078396,151.161651,23.033442,3,-0.793274,0.279358,0.206360,-0.500061,0.285682,0.108939,-1.653745,1.048370,-0.093717,-11.117440,150.878899,26.400856,-11.205293,0.000000,0.000000,
178089480,150.459289,23.037979,3,-0.789490,0.281860,0.204773,-0.505310,0.382722,-0.050392,-2.054823,1.441215,-0.149559,-11.307698,151.092247,26.228080,-11.272459,0.000000,0.000000,
178098927,151.161651,23.033442,3,-0.785583,0.284302,0.203125,-0.510620,0.161596,0.149171,-2.018875,1.195201,-0.286024,-11.420512,151.352508,26.128152,-11.369562,0.000000,0.000000,
178108589,150.570068,23.042517,3,-0.781616,0.286743,0.201416,-0.515991,0.212645,-0.072262,-1.617870,1.120522,-0.208491,-10.966435,151.457994,25.932975,-11.105167,0.000000,0.000000,
178119305,151.568786,23.033442,3,-0.777588,0.289124,0.199768,-0.521423,0.448861,-0.043588,-1.967944,1.406574,-0.062259,-11.250825,151.755984,25.825013,-11.200699,0.000000,0.000000,
178128766,151.975402,23.033442,3,-0.773499,0.291382,0.198120,-0.526794,0.271031,0.318460,-1.828238,1.000853,-0.108859,-11.384783,152.040884,25.742454,-11.321433,0.000000,0.000000,
178139789,151.069152,23.037979,3,-0.769409,0.293640,0.196472,-0.532104,0.284082,0.128601,-1.655357,1.025020,-0.100736,-11.128987,152.141970,25.509358,-11.195218,0.000000,0.000000,
178149119,152.178710,23.033442,3,-0.765259,0.295898,0.194824,-0.537415,0.442269,0.529865,-2.094227,1.068003,0.031683,-11.727678,152.386319,25.403963,-11.544442,0.000000,0.000000,
178158869,152.160430,23.024367,3,-0.761108,0.298096,0.193176,-0.542725,0.255584,0.254624,-1.744047,0.982082,-0.135641,-11.281312,152.591197,25.268230,-11.371864,0.000000,0.000000,
178169855,152.197021,23.042517,3,-0.756897,0.300232,0.191467,-0.548035,0.309807,0.080914,-1.809058,1.158669,-0.135540,-11.212226,152.794302,25.100288,-11.267164,0.000000,0.000000,
178179320,152.382568,23.033442,3,-0.752563,0.302307,0.189636,-0.553406,0.373526,0.284839,-1.994126,1.144074,-0.076380,-11.493405,152.954226,24.943851,-11.415551,0.000000,0.000000,
178188900,153.491210,23.028904,3,-0.748230,0.304260,0.187744,-0.558899,0.423705,0.187991,-1.573992,0.970070,0.041774,-11.126160,153.293206,24.898539,-11.225746,0.000000,0.000000,
178200044,152.899505,23.037979,3,-0.743958,0.305969,0.185791,-0.564270,0.517617,-0.001170,-1.608841,1.150141,0.093802,-11.034661,153.496269,24.730931,-11.100421,0.000000,0.000000,
178209279,153.306182,23.037979,3,-0.739624,0.307617,0.183838,-0.569641,0.530613,0.357454,-1.855154,1.044327,0.110358,-11.454243,153.688550,24.602999,-11.332483,0.000000,0.000000,
178219157,153.805907,23.033442,3,-0.735352,0.309143,0.181824,-0.575012,0.386779,0.044526,-1.561476,1.048709,-0.010687,-11.020779,153.953021,24.507458,-11.128045,0.000000,0.000000,
178230127,154.230376,23.042517,3,-0.731018,0.310547,0.179932,-0.580322,0.525547,-0.030327,-1.970233,1.387490,0.012904,-11.299306,154.273125,24.415037,-11.240369,0.000000,0.000000,
178239587,154.508514,23.028904,3,-0.726685,0.311829,0.178040,-0.585632,0.565343,0.151170,-1.740218,1.116955,0.133144,-11.245749,154.547680,24.335847,-11.243897,0.000000,0.000000,
178249171,154.101257,23.028904,3,-0.722412,0.312927,0.176208,-0.590881,0.569141,-0.165699,-1.546789,1.225454,0.155108,-10.901420,154.696864,24.180477,-11.019279,0.000000,0.000000,
178260291,154.508514,23.028904,3,-0.718140,0.314026,0.174438,-0.596008,0.448861,-0.043588,-1.967944,1.362137,-0.051533,-11.287308,154.929770,24.033789,-11.195071,0.000000,0.000000,
178269547,154.711883,23.028904,3,-0.713867,0.314941,0.172729,-0.601074,0.365855,0.033227,-1.402938,0.932164,0.013930,-10.908321,155.110962,23.907767,-11.007002,0.000000,0.000000,
178279393,155.229461,23.033442,3,-0.709595,0.315857,0.171143,-0.606140,0.382045,-0.375010,-1.526471,1.312693,-0.023955,-10.741795,155.368029,23.815462,-10.833060,0.000000,0.000000,
178290204,155.747070,23.037979,3,-0.705322,0.316650,0.169617,-0.611145,0.173846,-0.030856,-1.846800,1.211093,-0.282829,-11.174436,155.695810,23.737750,-11.056956,0.000000,0.000000,
178299701,156.245849,23.033442,3,-0.700928,0.317444,0.168152,-0.616150,0.282909,-0.130894,-1.446969,1.058683,-0.077910,-10.829817,156.023783,23.698311,-10.907980,0.000000,0.000000,
178309450,155.839599,23.033442,3,-0.696533,0.318176,0.166809,-0.621094,0.055921,-0.274299,-1.716582,1.297450,-0.363754,-10.899934,156.219824,23.571082,-10.902704,0.000000,0.000000,
178320600,156.948638,23.028904,3,-0.692139,0.318909,0.165527,-0.626038,-0.000857,0.042853,-1.624156,0.984311,-0.388438,-11.033571,156.618449,23.530688,-10.988533,0.000000,0.000000,
178330030,156.653197,23.033442,3,-0.687683,0.319641,0.164307,-0.630798,-0.124781,-0.268451,-1.370240,1.048076,-0.447101,-10.620497,156.846399,23.434716,-10.747150,0.000000,0.000000,
178340924,157.059997,23.033442,3,-0.683228,0.320496,0.163086,-0.635498,0.026401,-0.238531,-1.886209,1.378975,-0.415022,-11.049030,157.141046,23.338850,-10.945143,0.000000,0.000000,
178350277,157.356506,23.028904,3,-0.678650,0.321472,0.161865,-0.640198,-0.051048,0.069741,-1.664939,0.988651,-0.433352,-11.069489,157.399211,23.260257,-11.026696,0.000000,0.000000,
178359887,157.356506,23.028904,3,-0.674072,0.322449,0.160583,-0.644836,0.000773,-0.392645,-1.283201,1.114047,-0.279986,-10.499947,157.614285,23.154500,-10.681218,0.000000,0.000000,
178370796,157.467376,23.033442,3,-0.669434,0.323608,0.159302,-0.649414,0.033155,-0.198394,-1.909314,1.367325,-0.397791,-11.088017,157.838690,23.017075,-10.948025,0.000000,0.000000,
178380191,157.281738,23.042517,3,-0.664795,0.324829,0.157959,-0.653931,0.018556,-0.208568,-1.534715,1.131104,-0.318628,-10.803923,157.950156,22.851423,-10.853516,0.000000,0.000000,
178389874,158.280547,23.033442,3,-0.660095,0.326172,0.156616,-0.658264,0.080919,-0.381310,-1.501636,1.252678,-0.228917,-10.679604,158.232771,22.785584,-10.739451,0.000000,0.000000,
178400980,158.687957,23.033442,3,-0.655396,0.327637,0.155212,-0.662598,0.180580,-0.141260,-1.690267,1.200169,-0.189857,-10.992025,158.570378,22.715089,-10.905105,0.000000,0.000000,
178410373,158.391967,23.037979,3,-0.650635,0.329224,0.153748,-0.666870,0.005479,-0.204230,-1.338281,1.008537,-0.274315,-10.656189,158.749865,22.594493,-10.741849,0.000000,0.000000,
178420063,158.594878,23.037979,3,-0.645813,0.330872,0.152344,-0.671021,0.032498,-0.372472,-1.560601,1.288397,-0.275123,-10.717837,158.939293,22.472987,-10.726101,0.000000,0.000000,
178431099,158.780547,23.028904,3,-0.640991,0.332581,0.150879,-0.675110,0.099764,-0.124065,-1.582324,1.121777,-0.244841,-10.906339,159.156905,22.334735,-10.844314,0.000000,0.000000,
178440459,159.002288,23.037979,3,-0.636047,0.334412,0.149414,-0.679199,-0.155460,-0.376617,-1.321441,1.132060,-0.388112,-10.490373,159.336555,22.218837,-10.612176,0.000000,0.000000,
178450197,159.705230,23.033442,3,-0.631104,0.336304,0.147949,-0.683167,-0.074604,-0.092731,-1.788662,1.222945,-0.456465,-11.022755,159.621391,22.153449,-10.881461,0.000000,0.000000,
178461296,159.501769,23.033442,3,-0.626099,0.338257,0.146484,-0.687134,-0.064974,-0.297751,-1.309746,1.079493,-0.309722,-10.547329,159.844234,22.022682,-10.662315,0.000000,0.000000,
178470715,159.612670,23.037979,3,-0.621033,0.340271,0.144958,-0.691040,-0.106466,-0.212184,-1.601290,1.206868,-0.421703,-10.796566,160.007802,21.894156,-10.750367,0.000000,0.000000,
178481577,160.629516,23.037979,3,-0.615906,0.342468,0.143433,-0.694824,-0.079326,-0.067918,-1.613721,1.104757,-0.424387,-10.905002,160.361435,21.846668,-10.851785,0.000000,0.000000,
178490804,161.129607,23.033442,3,-0.610718,0.344788,0.141846,-0.698608,-0.038341,-0.158323,-1.262789,0.949546,-0.288383,-10.604570,160.706467,21.837873,-10.689641,0.000000,0.000000,
178500573,160.315643,23.033442,3,-0.605530,0.347107,0.140320,-0.702209,-0.073387,-0.133511,-1.647670,1.185203,-0.407998,-10.876632,160.846119,21.687164,-10.812284,0.000000,0.000000,
178511445,160.926116,23.033442,3,-0.600342,0.349609,0.138672,-0.705811,-0.157037,0.157354,-1.562470,0.921724,-0.540899,-10.965096,161.096228,21.577074,-10.912509,0.000000,0.000000,
178520766,160.926116,23.033442,3,-0.595154,0.352112,0.137024,-0.709290,-0.156604,-0.086822,-1.542146,1.093763,-0.477348,-10.791163,161.265028,21.456942,-10.832922,0.000000,0.000000,
178530541,161.240508,23.037979,3,-0.589905,0.354736,0.135254,-0.712646,-0.003083,0.108939,-1.836047,1.137725,-0.446130,-11.167830,161.469633,21.345002,-11.052578,0.000000,0.000000,
178541664,161.629180,23.028904,3,-0.584595,0.357361,0.133484,-0.716064,-0.017141,0.051535,-1.241271,0.792044,-0.318587,-10.706057,161.736283,21.243792,-10.825305,0.000000,0.000000,
178551121,161.629180,23.028904,3,-0.579285,0.360046,0.131592,-0.719299,-0.045915,-0.021001,-1.510018,1.034563,-0.381056,-10.833717,161.916638,21.128960,-10.830823,0.000000,0.000000,
178560831,161.740630,23.033442,3,-0.574036,0.362793,0.129578,-0.722595,-0.031572,0.315542,-1.725024,0.927726,-0.522835,-11.192935,162.088308,21.000185,-11.068322,0.000000,0.000000,
178571713,161.758392,23.042517,3,-0.568726,0.365479,0.127502,-0.725769,0.100626,0.045158,-1.281878,0.819916,-0.215599,-10.763732,162.254424,20.845530,-10.868552,0.000000,0.000000,
178581046,161.962432,23.042517,3,-0.563354,0.368225,0.125305,-0.728943,0.175176,0.160290,-1.695632,1.010816,-0.294189,-11.143896,162.393793,20.707751,-11.049143,0.000000,0.000000,
178590786,162.554687,23.033442,3,-0.558044,0.370911,0.123047,-0.732056,0.107953,0.258565,-1.643798,0.923935,-0.381568,-11.137690,162.625067,20.617547,-11.107217,0.000000,0.000000,
178601955,162.554687,23.033442,3,-0.552673,0.373596,0.120667,-0.735107,0.042842,0.058827,-1.390250,0.907538,-0.313257,-10.809102,162.841502,20.488713,-10.911693,0.000000,0.000000,
178611383,162.665588,23.037979,3,-0.547363,0.376221,0.118164,-0.738159,0.261648,0.172751,-1.698005,1.011205,-0.235010,-11.175446,163.001207,20.362895,-11.084681,0.000000,0.000000,
178621092,162.165435,23.042517,3,-0.542053,0.378784,0.115601,-0.741150,0.246979,0.277332,-1.303471,0.671988,-0.202035,-10.962379,163.041938,20.161127,-11.004470,0.000000,0.000000,
178632134,163.479705,23.037979,3,-0.536743,0.381348,0.112976,-0.744141,0.179842,0.047624,-1.391433,0.900832,-0.198927,-10.858169,163.345890,20.090807,-10.908514,0.000000,0.000000,
178641337,163.479705,23.037979,3,-0.531433,0.383789,0.110291,-0.747070,0.362734,0.356545,-1.675552,0.852116,-0.233695,-11.305842,163.555352,20.002045,-11.169109,0.000000,0.000000,
178652315,163.276183,23.037979,3,-0.526123,0.386169,0.107544,-0.750000,0.211375,0.244433,-1.339500,0.725142,-0.243880,-10.945303,163.721995,19.850074,-11.022323,0.000000,0.000000,
178661713,164.071502,23.028904,3,-0.520813,0.388489,0.104675,-0.752930,0.180310,0.069549,-1.540711,0.994991,-0.259410,-10.966534,163.973536,19.787458,-10.985731,0.000000,0.000000,
178671356,164.386016,23.033442,3,-0.515503,0.390686,0.101807,-0.755798,0.385839,0.283865,-1.522412,0.797675,-0.169834,-11.165291,164.241034,19.726816,-11.103497,0.000000,0.000000,
178682390,164.090362,23.037979,3,-0.510193,0.392822,0.098938,-0.758728,0.393338,-0.102471,-1.195471,0.834152,0.081027,-10.738504,164.429844,19.591098,-10.864110,0.000000,0.000000,
178691838,163.682738,23.037979,3,-0.504944,0.394775,0.096008,-0.761597,0.262741,0.148251,-1.637004,0.989985,-0.262400,-11.105634,164.474491,19.399808,-11.022521,0.000000,0.000000,
178701429,164.293395,23.037979,3,-0.499695,0.396667,0.093079,-0.764404,0.362271,0.051433,-1.266783,0.785536,-0.045687,-10.862079,164.626163,19.275003,-10.917293,0.000000,0.000000,
178712562,164.885741,23.028904,3,-0.494446,0.398438,0.090088,-0.767212,0.348301,-0.015784,-1.260971,0.831450,-0.021208,-10.811443,164.888697,19.183935,-10.847868,0.000000,0.000000,
178721788,165.607421,23.033442,3,-0.489197,0.400146,0.087036,-0.770081,0.363545,0.098506,-1.604931,0.983942,-0.167092,-11.106650,165.199817,19.164398,-11.017592,0.000000,0.000000,
178731598,165.515319,23.037979,3,-0.484009,0.401733,0.084045,-0.772888,0.525929,0.047011,-1.141158,0.662494,0.112023,-10.865161,165.446356,19.093639,-10.917616,0.000000,0.000000,
178742416,165.515319,23.037979,3,-0.478760,0.403198,0.081055,-0.775635,0.387799,-0.228988,-1.420762,1.070835,0.069673,-10.829527,165.665194,18.984260,-10.859841,0.000000,0.000000,
178751892,165.422698,23.042517,3,-0.473511,0.404602,0.078064,-0.778442,0.428337,0.127392,-1.549359,0.911288,-0.126356,-11.121866,165.799165,18.850891,-11.031696,0.000000,0.000000,
178761574,165.922485,23.037979,3,-0.468384,0.405884,0.075134,-0.781189,0.486882,-0.197190,-1.080903,0.785834,0.210154,-10.682827,166.004274,18.761491,-10.802883,0.000000,0.000000,
178772599,166.329681,23.037979,3,-0.463196,0.407104,0.072205,-0.783936,0.387799,-0.228988,-1.420762,1.065099,0.060803,-10.842577,166.271391,18.678744,-10.828916,0.000000,0.000000,
178781952,166.514953,23.028904,3,-0.458008,0.408203,0.069336,-0.786682,0.304402,0.064296,-1.365257,0.847448,-0.161172,-10.902354,166.491228,18.604825,-10.877080,0.000000,0.000000,
178791798,166.830047,23.033442,3,-0.452820,0.409180,0.066528,-0.789368,0.425583,-0.280068,-1.073055,0.833699,0.205999,-10.618693,166.737327,18.538767,-10.707610,0.000000,0.000000,
178802591,167.347686,23.037979,3,-0.447693,0.410095,0.063782,-0.792053,0.329666,0.029665,-1.559357,0.991089,-0.178828,-11.031503,167.051052,18.488985,-10.920039,0.000000,0.000000,
178812075,167.329894,23.028904,3,-0.442566,0.410950,0.061157,-0.794678,0.431050,-0.084397,-1.217217,0.800137,0.048350,-10.819527,167.278140,18.418490,-10.854115,0.000000,0.000000,
178821760,167.644500,23.033442,3,-0.437439,0.411682,0.058533,-0.797302,0.389309,-0.284436,-1.219576,0.942637,0.140365,-10.700557,167.524598,18.356525,-10.753400,0.000000,0.000000,
178832810,167.551330,23.037979,3,-0.432251,0.412415,0.056030,-0.799988,0.321466,-0.104758,-1.567697,1.084176,-0.114843,-10.969277,167.731765,18.238436,-10.894987,0.000000,0.000000,
178842214,167.866973,23.042517,3,-0.427063,0.413086,0.053528,-0.802551,0.298338,-0.171998,-0.962132,0.705087,0.068977,-10.537528,167.928155,18.155088,-10.660540,0.000000,0.000000,
178853225,168.773101,23.037979,3,-0.421875,0.413696,0.051147,-0.805176,0.315329,-0.271898,-1.534026,1.162968,-0.012264,-10.874880,168.285674,18.131606,-10.801116,0.000000,0.000000,
178862495,168.551147,23.028904,3,-0.416626,0.414246,0.048828,-0.807739,0.096963,0.097538,-1.325502,0.852694,-0.342956,-10.764555,168.503026,18.062607,-10.777135,0.000000,0.000000,
178872244,168.773101,23.037979,3,-0.411316,0.414795,0.046570,-0.810303,0.194065,-0.200908,-0.977773,0.758636,0.011205,-10.469971,168.729192,17.991308,-10.575674,0.000000,0.000000,
178882956,168.866302,23.033442,3,-0.406006,0.415344,0.044434,-0.812805,0.149800,-0.037005,-1.511708,1.052755,-0.271767,-10.861212,168.946954,17.890606,-10.762949,0.000000,0.000000,
178892515,168.773101,23.037979,3,-0.400635,0.415833,0.042358,-0.815308,0.068972,-0.089770,-1.024413,0.760738,-0.161067,-10.468292,169.084947,17.770639,-10.569693,0.000000,0.000000,
178902324,168.977264,23.037979,3,-0.395203,0.416382,0.040283,-0.817810,0.133846,-0.105678,-1.368129,0.995823,-0.197577,-10.732559,169.238579,17.653110,-10.676512,0.000000,0.000000,
178913447,169.273071,23.033442,3,-0.389709,0.416931,0.038269,-0.820251,0.081725,0.018228,-1.171218,0.793876,-0.264248,-10.617885,169.440740,17.538891,-10.638060,0.000000,0.000000,
178922806,169.180938,23.037979,3,-0.384155,0.417542,0.036255,-0.822632,0.038631,-0.194711,-1.015207,0.830552,-0.104156,-10.412539,169.555772,17.411460,-10.490149,0.000000,0.000000,
178932497,169.476714,23.033442,3,-0.378601,0.418213,0.034241,-0.825012,0.031526,-0.035465,-1.411713,1.024085,-0.315823,-10.721721,169.709194,17.298532,-10.642030,0.000000,0.000000,
178943550,169.569915,23.028904,3,-0.373047,0.418823,0.032166,-0.827271,-0.008623,0.038642,-1.092884,0.763670,-0.310798,-10.515816,169.873672,17.166459,-10.559251,0.000000,0.000000,
178952990,169.699249,23.042517,3,-0.367432,0.419556,0.030151,-0.829529,-0.025177,-0.116255,-1.079731,0.853277,-0.211220,-10.434583,170.002591,17.047842,-10.477486,0.000000,0.000000,
178962588,169.995574,23.037979,3,-0.361755,0.420227,0.028076,-0.831665,0.007999,0.033184,-1.515362,1.071022,-0.403682,-10.788913,170.164392,16.943465,-10.681742,0.000000,0.000000,
178973691,169.792419,23.037979,3,-0.356140,0.421021,0.026001,-0.833801,-0.031585,-0.072586,-0.896505,0.700000,-0.191290,-10.328682,170.282233,16.786522,-10.450182,0.000000,0.000000,
178983115,170.291900,23.033442,3,-0.350525,0.421814,0.023926,-0.835876,-0.017924,-0.151861,-1.361939,1.073003,-0.242200,-10.614472,170.441761,16.687543,-10.557935,0.000000,0.000000,
178992870,170.809753,23.037979,3,-0.344849,0.422668,0.021851,-0.837830,-0.004681,0.174201,-1.448270,0.957004,-0.502359,-10.779902,170.672915,16.624329,-10.703514,0.000000,0.000000,
179003732,171.217651,23.037979,3,-0.339233,0.423523,0.019714,-0.839722,-0.006451,-0.125917,-0.980920,0.785947,-0.156505,-10.385531,170.954903,16.573189,-10.494957,0.000000,0.000000,
179013059,170.920745,23.042517,3,-0.333557,0.424438,0.017517,-0.841614,-0.027527,-0.033888,-1.371613,1.024083,-0.331924,-10.645895,171.102614,16.469897,-10.593952,0.000000,0.000000,
179023915,170.717590,23.042517,3,-0.327881,0.425415,0.015381,-0.843384,-0.073849,0.253933,-1.168781,0.751532,-0.532751,-10.566732,171.208680,16.311449,-10.576101,0.000000,0.000000,
179033118,171.198791,23.028904,3,-0.322144,0.426453,0.013184,-0.845093,-0.112310,-0.019605,-0.988136,0.778505,-0.295287,-10.340572,171.356515,16.215245,-10.421625,0.000000,0.000000,
179042759,171.421355,23.037979,3,-0.316467,0.427551,0.010925,-0.846741,-0.014114,0.293787,-1.477741,0.928372,-0.610172,-10.809735,171.524462,16.118382,-10.676174,0.000000,0.000000,
179053803,171.736053,23.042517,3,-0.310730,0.428650,0.008606,-0.848328,-0.022247,0.055230,-0.926951,0.665857,-0.290154,-10.383049,171.741466,16.027414,-10.483921,0.000000,0.000000,
179063317,171.532897,23.042517,3,-0.304993,0.429810,0.006287,-0.849854,-0.158311,0.110281,-1.224323,0.916321,-0.478658,-10.485847,171.854415,15.903650,-10.485185,0.000000,0.000000,
179073050,172.439880,23.037979,3,-0.299255,0.430969,0.003906,-0.851318,-0.001480,0.134877,-1.445046,0.996660,-0.471400,-10.744138,172.118273,15.865687,-10.655022,0.000000,0.000000,
179083937,172.255004,23.047055,3,-0.293579,0.432190,0.001465,-0.852661,-0.030249,0.153541,-0.935013,0.630329,-0.378546,-10.399957,172.316000,15.767844,-10.487732,0.000000,0.000000,
179093239,172.439880,23.037979,3,-0.287903,0.433411,-0.001038,-0.854004,-0.012672,0.024304,-1.386518,1.024226,-0.368715,-10.661351,172.485402,15.682869,-10.601603,0.000000,0.000000,
179103024,172.754638,23.042517,3,-0.282288,0.434631,-0.003662,-0.855225,0.016767,0.351498,-1.266771,0.762051,-0.602041,-10.688905,172.688731,15.608818,-10.658860,0.000000,0.000000,
179114165,172.959411,23.042517,3,-0.276733,0.435913,-0.006287,-0.856384,-0.006515,0.023817,-1.150661,0.842520,-0.313413,-10.510688,172.912671,15.522243,-10.561678,0.000000,0.000000,
179123630,173.051055,23.037979,3,-0.271118,0.437195,-0.008972,-0.857483,0.022414,0.300573,-1.360915,0.858521,-0.584986,-10.725599,173.085024,15.436650,-10.669188,0.000000,0.000000,
179133300,172.754638,23.042517,3,-0.265503,0.438477,-0.011780,-0.858582,-0.015408,0.096173,-0.959955,0.680914,-0.329628,-10.399563,173.171973,15.298415,-10.492351,0.000000,0.000000,
179144175,173.032714,23.028904,3,-0.259949,0.439758,-0.014587,-0.859558,0.111728,0.119944,-1.140832,0.744666,-0.340422,-10.602271,173.311634,15.167378,-10.564444,0.000000,0.000000,
179153521,173.551208,23.033442,3,-0.254395,0.440979,-0.017517,-0.860535,0.078091,0.301729,-1.194767,0.718920,-0.527986,-10.649540,173.497785,15.095420,-10.620255,0.000000,0.000000,
179164434,173.459045,23.037979,3,-0.248840,0.442261,-0.020447,-0.861450,0.089874,0.099777,-0.873414,0.568755,-0.271114,-10.422167,173.654653,14.977202,-10.490335,0.000000,0.000000,
179173756,173.866515,23.037979,3,-0.243286,0.443542,-0.023499,-0.862305,0.105839,0.238410,-1.396346,0.895108,-0.517288,-10.767524,173.833472,14.901186,-10.672134,0.000000,0.000000,
179183615,174.569946,23.033442,3,-0.237793,0.444763,-0.026611,-0.863098,0.101748,0.251779,-1.200803,0.748303,-0.489793,-10.646936,174.117727,14.879976,-10.655604,0.000000,0.000000,
179194656,174.070251,23.037979,3,-0.232361,0.445984,-0.029785,-0.863831,-0.014061,0.074092,-0.928648,0.676295,-0.303084,-10.357053,174.272506,14.760111,-10.459794,0.000000,0.000000,
179204089,174.348388,23.024367,3,-0.226929,0.447205,-0.033020,-0.864563,-0.039361,0.115190,-1.403503,1.037676,-0.484835,-10.622115,174.425472,14.668624,-10.566255,0.000000,0.000000,
179213659,174.181304,23.042517,3,-0.221497,0.448242,-0.036255,-0.865234,0.075639,0.278349,-0.907722,0.532331,-0.458008,-10.434681,174.519672,14.540918,-10.479960,0.000000,0.000000,
179224737,174.680999,23.037979,3,-0.216125,0.449341,-0.039612,-0.865906,-0.000289,-0.091424,-0.934739,0.750332,-0.162998,-10.338112,174.710339,14.444571,-10.386926,0.000000,0.000000,
179234019,174.996856,23.042517,3,-0.210754,0.450378,-0.042969,-0.866577,0.040216,0.317023,-1.342900,0.874800,-0.628464,-10.665654,174.897605,14.378538,-10.569733,0.000000,0.000000,
179243847,174.885802,23.037979,3,-0.205383,0.451416,-0.046448,-0.867126,0.140924,0.196511,-0.921576,0.553484,-0.371542,-10.473563,175.036206,14.274259,-10.506658,0.000000,0.000000,
179254826,175.793121,23.033442,3,-0.200134,0.452393,-0.049927,-0.867615,0.006133,-0.019532,-1.107928,0.854473,-0.271584,-10.452152,175.334045,14.245233,-10.470906,0.000000,0.000000,
179264284,174.680999,23.037979,3,-0.194824,0.453430,-0.053406,-0.868103,0.139505,0.287746,-1.322337,0.827704,-0.576049,-10.706086,175.345965,14.068512,-10.625156,0.000000,0.000000,
179273886,175.996886,23.033442,3,-0.189575,0.454407,-0.057007,-0.868530,0.080029,-0.032877,-0.783580,0.574839,-0.152150,-10.319634,175.602428,14.043619,-10.424771,0.000000,0.000000,
179284987,175.292815,23.037979,3,-0.184265,0.455383,-0.060608,-0.868896,0.019010,0.072184,-1.174741,0.867207,-0.380501,-10.493109,175.699698,13.892161,-10.469593,0.000000,0.000000,
179294199,175.496612,23.037979,3,-0.179016,0.456299,-0.064209,-0.869263,0.066769,0.172457,-1.026554,0.696014,-0.419215,-10.455020,175.789194,13.772400,-10.460036,0.000000,0.000000,
179304024,175.903655,23.037979,3,-0.173767,0.457214,-0.067871,-0.869568,0.102970,-0.072189,-0.800320,0.590395,-0.129570,-10.335210,175.945437,13.683842,-10.378166,0.000000,0.000000,
179314909,176.107940,23.037979,3,-0.168518,0.458069,-0.071594,-0.869873,0.204130,-0.013769,-1.376867,0.962905,-0.322531,-10.757093,176.124161,13.585288,-10.626692,0.000000,0.000000,
179324418,176.626617,23.042517,3,-0.163269,0.458862,-0.075256,-0.870117,0.091812,0.083339,-0.911394,0.626235,-0.308177,-10.395903,176.346987,13.544359,-10.475322,0.000000,0.000000,
179335286,176.311736,23.037979,3,-0.158020,0.459656,-0.079041,-0.870361,0.157836,-0.187383,-1.224081,0.932851,-0.133796,-10.625785,176.486951,13.424919,-10.574006,0.000000,0.000000,
179344752,176.515533,23.037979,3,-0.152771,0.460449,-0.082764,-0.870544,0.156765,0.033257,-1.075332,0.740616,-0.311574,-10.530849,176.618915,13.328554,-10.545701,0.000000,0.000000,
179354274,176.107940,23.037979,3,-0.147583,0.461121,-0.086487,-0.870667,0.099109,-0.252542,-0.844222,0.683864,0.012987,-10.355306,176.649719,13.171655,-10.420829,0.000000,0.000000,
179365378,176.923675,23.037979,3,-0.142334,0.461792,-0.090210,-0.870850,0.091919,-0.094102,-1.230830,0.941046,-0.253018,-10.561149,176.846622,13.085424,-10.512859,0.000000,0.000000,
179374608,177.534576,23.037979,3,-0.137146,0.462463,-0.093933,-0.870911,0.202597,-0.098241,-0.819349,0.556848,-0.112692,-10.426249,177.095807,13.068674,-10.456051,0.000000,0.000000,
179384435,177.441833,23.042517,3,-0.131897,0.463074,-0.097595,-0.871033,0.225062,-0.240058,-0.886525,0.643334,-0.008476,-10.489807,177.288489,13.004874,-10.478190,0.000000,0.000000,
179395243,177.052551,23.051592,3,-0.126648,0.463623,-0.101196,-0.871094,0.200898,0.123223,-1.270268,0.845105,-0.471525,-10.662853,177.384237,12.862989,-10.599305,0.000000,0.000000,
179404728,176.941467,23.047055,3,-0.121399,0.464172,-0.104736,-0.871094,0.198889,-0.063754,-0.763186,0.504765,-0.144476,-10.391058,177.422868,12.713586,-10.462724,0.000000,0.000000,
179414428,178.127166,23.028904,3,-0.116089,0.464722,-0.108215,-0.871094,0.239545,-0.133023,-1.141403,0.809000,-0.188827,-10.632777,177.677501,12.690491,-10.574254,0.000000,0.000000,
179425466,178.053313,23.042517,3,-0.110779,0.465271,-0.111633,-0.871094,0.197021,0.156098,-1.194308,0.779096,-0.490435,-10.599075,177.887304,12.615991,-10.590532,0.000000,0.000000,
179434787,177.349609,23.047055,3,-0.105469,0.465759,-0.114929,-0.871033,0.184118,-0.121140,-0.758179,0.532826,-0.096563,-10.376270,177.903755,12.457347,-10.450006,0.000000,0.000000,
179444638,178.146575,23.037979,3,-0.100220,0.466125,-0.118225,-0.871033,0.238536,-0.107717,-1.212302,0.857613,-0.248455,-10.664015,178.071396,12.379889,-10.590367,0.000000,0.000000,
179455448,178.442626,23.033442,3,-0.094910,0.466492,-0.121460,-0.870972,0.222813,0.004276,-0.788879,0.494079,-0.233071,-10.404391,178.274137,12.309419,-10.468390,0.000000,0.000000,
179465025,178.368743,23.047055,3,-0.089661,0.466858,-0.124695,-0.870911,0.214431,-0.247320,-0.787460,0.566436,0.000708,-10.430716,178.409267,12.220423,-10.443680,0.000000,0.000000,
179475988,178.961913,23.037979,3,-0.084412,0.467163,-0.127930,-0.870789,0.281624,0.070241,-1.178636,0.755723,-0.414587,-10.654004,178.646120,12.166668,-10.581623,0.000000,0.000000,
179485388,179.480712,23.042517,3,-0.079163,0.467407,-0.131104,-0.870667,0.209013,-0.061329,-0.802862,0.536396,-0.182757,-10.407538,178.916396,12.165641,-10.467442,0.000000,0.000000,
179494985,179.572936,23.037979,3,-0.073975,0.467590,-0.134216,-0.870544,0.221652,-0.185259,-0.959843,0.687429,-0.115105,-10.517005,179.155573,12.139694,-10.499946,0.000000,0.000000,
179506111,178.868652,23.042517,3,-0.068726,0.467773,-0.137329,-0.870422,0.160259,-0.020736,-1.011912,0.716395,-0.290681,-10.470878,179.236255,11.990680,-10.480882,0.000000,0.000000,
179515584,179.276855,23.042517,3,-0.063477,0.467896,-0.140442,-0.870239,0.107934,-0.164543,-0.625603,0.473108,-0.038172,-10.249091,179.357000,11.898378,-10.328857,0.000000,0.000000,
179525213,178.665313,23.042517,3,-0.058289,0.468018,-0.143433,-0.870056,0.153491,-0.176433,-0.998844,0.747073,-0.141112,-10.484260,179.341585,11.718414,-10.430784,0.000000,0.000000,
179536010,179.369079,23.037979,3,-0.053101,0.468079,-0.146423,-0.869873,0.194893,0.020382,-0.956893,0.648106,-0.316774,-10.449357,179.472648,11.608715,-10.442965,0.000000,0.000000,
179545452,179.165252,23.037979,3,-0.047913,0.468079,-0.149353,-0.869629,0.277498,-0.182491,-0.813491,0.536514,-0.096576,-10.490091,179.524220,11.474279,-10.473875,0.000000,0.000000,
179555168,179.777343,23.037979,3,-0.042725,0.468079,-0.152222,-0.869446,0.199630,0.111130,-1.121796,0.763065,-0.462059,-10.514035,179.682582,11.400888,-10.500213,0.000000,0.000000,
179566267,179.888427,23.042517,3,-0.037476,0.468018,-0.155151,-0.869202,0.084238,-0.097507,-0.709456,0.536509,-0.128458,-10.256978,179.847046,11.310202,-10.340682,0.000000,0.000000,
179575701,179.665191,23.033442,3,-0.032227,0.468018,-0.157959,-0.868896,0.168430,-0.117434,-1.023646,0.752633,-0.220850,-10.491439,179.919208,11.190164,-10.439559,0.000000,0.000000,
179585427,179.888427,23.042517,3,-0.026917,0.467896,-0.160767,-0.868591,0.125991,0.172493,-1.086450,0.768124,-0.506755,-10.412093,180.021790,11.085390,-10.421545,0.000000,0.000000,
179596225,180.685058,23.033442,3,-0.021667,0.467773,-0.163513,-0.868286,0.104733,-0.125219,-0.628828,0.473958,-0.090005,-10.238421,180.265102,11.049933,-10.301437,0.000000,0.000000,
179605688,180.796172,23.037979,3,-0.016418,0.467651,-0.166260,-0.867981,0.233302,0.195446,-1.237463,0.827531,-0.597418,-10.562498,180.468639,11.011001,-10.472657,0.000000,0.000000,
179615469,180.889465,23.033442,3,-0.011230,0.467468,-0.169006,-0.867615,0.103382,0.180050,-0.919625,0.653099,-0.465946,-10.302171,180.654620,10.958072,-10.360839,0.000000,0.000000,
179626564,179.980682,23.037979,3,-0.005981,0.467285,-0.171753,-0.867249,0.078428,-0.013215,-0.785192,0.591986,-0.240906,-10.258747,180.649358,10.767901,-10.293882,0.000000,0.000000,
179635982,181.316100,23.042517,3,-0.000793,0.467102,-0.174500,-0.866821,0.109457,0.168137,-1.252936,0.917236,-0.560623,-10.463417,180.875194,10.746365,-10.405072,0.000000,0.000000,
179646800,180.296172,23.042517,3,0.004456,0.466919,-0.177246,-0.866333,-0.000297,0.202384,-0.615164,0.467750,-0.375625,-10.041833,180.882410,10.571591,-10.166837,0.000000,0.000000,
179656282,180.907287,23.042517,3,0.009705,0.466675,-0.179932,-0.865906,0.066104,-0.082201,-0.877554,0.686616,-0.204593,-10.322448,180.986839,10.476538,-10.268898,0.000000,0.000000,
179665859,180.407287,23.047055,3,0.014893,0.466431,-0.182617,-0.865356,0.035657,0.308468,-0.998079,0.743333,-0.599535,-10.223225,180.978211,10.312455,-10.238945,0.000000,0.000000,
179676659,180.500030,23.042517,3,0.020142,0.466125,-0.185364,-0.864868,-0.016682,0.049099,-0.621807,0.507898,-0.236415,-10.079473,180.999467,10.149401,-10.134354,0.000000,0.000000,
179686008,181.204467,23.037979,3,0.025330,0.465820,-0.188110,-0.864258,0.018841,0.070572,-1.154945,0.917676,-0.415602,-10.363119,181.132277,10.076003,-10.284393,0.000000,0.000000,
179695777,181.296722,23.033442,3,0.030518,0.465515,-0.190918,-0.863647,-0.082533,0.310814,-0.907982,0.747940,-0.544053,-10.075405,181.261012,9.996213,-10.147323,0.000000,0.000000,
179706915,181.407836,23.037979,3,0.035706,0.465210,-0.193726,-0.862976,-0.014459,-0.062587,-0.799306,0.668569,-0.180383,-10.199866,181.399209,9.899214,-10.181784,0.000000,0.000000,
179716360,181.519988,23.042517,3,0.040894,0.464905,-0.196533,-0.862305,-0.021888,0.208995,-1.146182,0.920273,-0.533436,-10.261417,181.514869,9.816208,-10.234012,0.000000,0.000000,
179726050,181.723357,23.042517,3,0.046021,0.464661,-0.199341,-0.861511,0.005519,0.153072,-0.729104,0.576224,-0.367055,-10.102432,181.648547,9.742082,-10.147712,0.000000,0.000000,
179736912,182.019530,23.037979,3,0.051208,0.464355,-0.202271,-0.860718,-0.080206,0.032307,-0.825850,0.718336,-0.253445,-10.126064,181.823238,9.674102,-10.133512,0.000000,0.000000,
179746268,182.427886,23.037979,3,0.056396,0.464111,-0.205139,-0.859863,-0.058154,0.285207,-1.092990,0.897752,-0.571550,-10.171872,182.026535,9.648542,-10.158669,0.000000,0.000000,
179756090,182.112823,23.033442,3,0.061523,0.463867,-0.208069,-0.858948,-0.029316,0.208009,-0.654503,0.531565,-0.377272,-10.006021,182.136977,9.560053,-10.058551,0.000000,0.000000,
179767175,182.019530,23.037979,3,0.066711,0.463623,-0.210999,-0.857971,-0.014965,0.250744,-1.189084,0.963261,-0.580787,-10.250173,182.220318,9.433223,-10.184231,0.000000,0.000000,
179776613,181.816161,23.037979,3,0.071838,0.463440,-0.213989,-0.856934,-0.005431,0.293126,-0.770085,0.613914,-0.496547,-10.032008,182.233202,9.291903,-10.084395,0.000000,0.000000,
179786205,182.223968,23.037979,3,0.076965,0.463196,-0.216980,-0.855835,-0.040387,0.035556,-0.905373,0.767868,-0.287157,-10.183116,182.320129,9.193165,-10.149143,0.000000,0.000000,
179797154,182.539001,23.042517,3,0.082153,0.463013,-0.220032,-0.854675,-0.056216,0.268770,-1.130970,0.951741,-0.559855,-10.170957,182.461158,9.106567,-10.163449,0.000000,0.000000,
179806472,182.631774,23.037979,3,0.087280,0.462830,-0.223145,-0.853455,-0.087290,0.069526,-0.563439,0.506888,-0.201709,-9.963438,182.577542,9.033464,-10.032267,0.000000,0.000000,
179817466,182.946838,23.042517,3,0.092468,0.462708,-0.226257,-0.852173,0.018159,0.029142,-0.886084,0.722612,-0.296371,-10.218367,182.745397,8.963112,-10.154322,0.000000,0.000000,
179826674,183.244079,23.037979,3,0.097595,0.462524,-0.229431,-0.850830,-0.010649,0.383061,-0.915108,0.747326,-0.603523,-10.029186,182.920913,8.928469,-10.072247,0.000000,0.000000,
179836498,182.742919,23.042517,3,0.102783,0.462402,-0.232666,-0.849426,-0.082319,0.012151,-0.578398,0.527457,-0.156961,-10.000695,182.974831,8.810003,-10.025319,0.000000,0.000000,
179847495,183.150756,23.042517,3,0.107910,0.462219,-0.235901,-0.847961,0.081416,0.246124,-1.111551,0.875181,-0.576335,-10.247016,183.104031,8.717331,-10.170722,0.000000,0.000000,
179856842,182.631774,23.037979,3,0.113037,0.462097,-0.239197,-0.846436,0.005186,0.184827,-0.879188,0.722431,-0.427737,-10.112615,183.096622,8.568332,-10.132614,0.000000,0.000000,
179866530,182.835174,23.037979,3,0.118103,0.461975,-0.242554,-0.844849,-0.017437,0.076824,-0.722401,0.609126,-0.280245,-10.072639,183.130227,8.441022,-10.093279,0.000000,0.000000,
179877653,183.039092,23.037979,3,0.123169,0.461853,-0.245911,-0.843262,0.069215,0.160857,-1.123922,0.898825,-0.502916,-10.272357,183.206407,8.316548,-10.210731,0.000000,0.000000,
179886884,183.559142,23.042517,3,0.128174,0.461792,-0.249268,-0.841553,-0.001097,0.212215,-0.615970,0.513602,-0.363993,-9.959513,183.348830,8.265482,-10.045964,0.000000,0.000000,
179896722,183.447478,23.037979,3,0.133179,0.461670,-0.252686,-0.839783,0.013774,0.057179,-0.750736,0.624059,-0.284285,-10.110539,183.448118,8.177220,-10.088316,0.000000,0.000000,
179907505,183.355224,23.042517,3,0.138123,0.461609,-0.256042,-0.838013,0.128544,0.357840,-0.983966,0.760975,-0.659594,-10.125175,183.518309,8.057533,-10.112491,0.000000,0.000000,
179917104,183.466369,23.047055,3,0.143066,0.461487,-0.259460,-0.836182,0.029046,0.084423,-0.625455,0.506715,-0.269780,-10.049025,183.585466,7.955118,-10.070866,0.000000,0.000000,
179926809,183.762572,23.042517,3,0.147949,0.461426,-0.262939,-0.834290,0.018666,0.033979,-0.945473,0.792011,-0.318997,-10.203900,183.695336,7.876252,-10.158118,0.000000,0.000000,
179937926,183.651427,23.037979,3,0.152771,0.461365,-0.266418,-0.832397,0.094202,0.302054,-0.978790,0.785791,-0.587550,-10.114866,183.774050,7.758813,-10.129751,0.000000,0.000000,
179947170,183.762572,23.042517,3,0.157532,0.461243,-0.269897,-0.830383,0.102288,-0.113619,-0.531459,0.397832,-0.117197,-10.162696,183.843187,7.663525,-10.151359,0.000000,0.000000,
179957045,183.855376,23.037979,3,0.162354,0.461121,-0.273438,-0.828369,0.091981,0.084952,-0.931190,0.740442,-0.395669,-10.207503,183.920646,7.564115,-10.188182,0.000000,0.000000,
179967797,183.855376,23.037979,3,0.167114,0.460999,-0.276917,-0.826355,0.138140,0.204886,-0.784615,0.601587,-0.477448,-10.094329,183.989173,7.448147,-10.126627,0.000000,0.000000,
179977268,184.244384,23.028904,3,0.171875,0.460876,-0.280457,-0.824280,0.113434,-0.020940,-0.490200,0.356241,-0.194333,-10.088451,184.107059,7.381977,-10.101587,0.000000,0.000000,
179986998,184.170989,23.042517,3,0.176575,0.460693,-0.283997,-0.822144,0.159233,0.217798,-0.962950,0.751686,-0.550424,-10.165619,184.190367,7.290333,-10.143584,0.000000,0.000000,
179998066,184.467223,23.037979,3,0.181274,0.460449,-0.287537,-0.820007,0.086915,0.071559,-0.526981,0.407218,-0.262107,-10.027689,184.322293,7.210614,-10.067571,0.000000,0.000000,
180007440,184.170989,23.042517,3,0.185913,0.460266,-0.291077,-0.817871,0.182862,-0.063273,-0.989060,0.757201,-0.362326,-10.362441,184.361076,7.095880,-10.260968,0.000000,0.000000,
180018441,184.282134,23.047055,3,0.190552,0.459961,-0.294617,-0.815674,0.179906,0.272278,-0.702405,0.525805,-0.520413,-10.017909,184.423754,6.976586,-10.101553,0.000000,0.000000,
180027716,185.060210,23.028904,3,0.195129,0.459656,-0.298157,-0.813477,0.097148,-0.057857,-0.496704,0.371786,-0.166415,-10.095452,184.607259,6.956713,-10.097549,0.000000,0.000000,
180037442,184.170989,23.042517,3,0.199707,0.459351,-0.301697,-0.811218,0.204679,0.019582,-0.956977,0.729024,-0.432461,-10.288247,184.592757,6.806940,-10.222624,0.000000,0.000000,
180048488,185.283599,23.037979,3,0.204285,0.458984,-0.305237,-0.808960,0.170121,0.273078,-0.702320,0.537189,-0.512012,-9.990946,184.796730,6.774761,-10.070671,0.000000,0.000000,
180057888,185.190246,23.042517,3,0.208801,0.458557,-0.308777,-0.806702,0.180912,-0.116796,-0.571728,0.400055,-0.204554,-10.215981,184.933668,6.724155,-10.165973,0.000000,0.000000,
180067447,185.097961,23.047055,3,0.213257,0.458130,-0.312378,-0.804382,0.254468,0.139203,-1.046344,0.789759,-0.581684,-10.259491,185.028224,6.644799,-10.227308,0.000000,0.000000,
180078626,184.782836,23.042517,3,0.217712,0.457642,-0.315918,-0.802124,0.152577,-0.024140,-0.490538,0.350730,-0.232905,-10.098359,185.055927,6.504116,-10.142735,0.000000,0.000000,
180088102,185.802184,23.042517,3,0.222168,0.457092,-0.319519,-0.799805,0.193118,0.003451,-0.749033,0.558357,-0.353038,-10.191939,185.256896,6.493774,-10.175003,0.000000,0.000000,
180097738,184.578887,23.042517,3,0.226501,0.456482,-0.323059,-0.797424,0.193815,0.160442,-1.007857,0.799423,-0.545963,-10.176241,185.192072,6.318343,-10.175818,0.000000,0.000000,
180108560,185.394744,23.042517,3,0.230896,0.455872,-0.326660,-0.795105,0.127235,0.044665,-0.476216,0.357425,-0.258725,-10.009306,185.297821,6.232916,-10.066607,0.000000,0.000000,
180117914,185.375884,23.033442,3,0.235291,0.455139,-0.330261,-0.792725,0.183363,-0.093416,-0.858773,0.656936,-0.327140,-10.288135,185.370282,6.145582,-10.211900,0.000000,0.000000,
180127636,185.302459,23.047055,3,0.239685,0.454407,-0.333862,-0.790344,0.205880,0.192029,-0.696124,0.529734,-0.480719,-10.028640,185.416870,6.040388,-10.091706,0.000000,0.000000,
180138697,185.802184,23.042517,3,0.243958,0.453613,-0.337402,-0.787964,0.183780,-0.124365,-0.718587,0.531897,-0.265144,-10.250886,185.555197,5.970586,-10.196106,0.000000,0.000000,
180148174,185.802184,23.042517,3,0.248230,0.452759,-0.341003,-0.785522,0.237590,0.096642,-0.983561,0.762332,-0.534555,-10.201797,185.657583,5.902376,-10.199838,0.000000,0.000000,
180157876,186.098449,23.037979,3,0.252502,0.451904,-0.344543,-0.783142,0.245777,0.161104,-0.595869,0.425508,-0.463727,-10.013607,185.796908,5.855441,-10.077693,0.000000,0.000000,
180168618,185.894988,23.037979,3,0.256714,0.450989,-0.348083,-0.780762,0.202258,-0.101466,-0.779757,0.586470,-0.321664,-10.262708,185.877572,5.756367,-10.199038,0.000000,0.000000,
180178076,185.802184,23.042517,3,0.260925,0.450073,-0.351562,-0.778320,0.231019,0.173678,-0.970215,0.759185,-0.572881,-10.123862,185.917450,5.651980,-10.149732,0.000000,0.000000,
180187912,186.321838,23.047055,3,0.265076,0.449036,-0.355103,-0.775879,0.196521,-0.086328,-0.486039,0.328984,-0.240551,-10.128789,186.048241,5.598254,-10.135995,0.000000,0.000000,
180199026,185.914397,23.047055,3,0.269226,0.447998,-0.358582,-0.773438,0.237590,0.096642,-0.983561,0.767595,-0.540295,-10.175736,186.084764,5.470027,-10.162060,0.000000,0.000000,
180208464,186.914947,23.037979,3,0.273315,0.446960,-0.362000,-0.770996,0.181402,0.101269,-0.511255,0.378706,-0.346993,-9.979987,186.291470,5.471909,-10.042640,0.000000,0.000000,
180219308,186.618652,23.042517,3,0.277405,0.445801,-0.365479,-0.768555,0.155159,0.017939,-0.887268,0.714116,-0.405571,-10.156321,186.411499,5.399138,-10.117199,0.000000,0.000000,
180228751,186.599242,23.033442,3,0.281433,0.444641,-0.368896,-0.766174,0.185037,0.135936,-0.936873,0.758516,-0.510011,-10.082839,186.497207,5.325673,-10.094663,0.000000,0.000000,
180238321,186.210662,23.042517,3,0.285522,0.443359,-0.372314,-0.763733,0.127066,0.043053,-0.456420,0.355892,-0.265429,-9.968868,186.494081,5.197558,-10.012159,0.000000,0.000000,
180249143,186.117858,23.047055,3,0.289551,0.442078,-0.375793,-0.761292,0.160929,-0.049266,-0.901421,0.725534,-0.376243,-10.210295,186.479276,5.044555,-10.142112,0.000000,0.000000,
180258490,186.618652,23.042517,3,0.293579,0.440735,-0.379211,-0.758789,0.112669,0.254993,-0.660608,0.564782,-0.429081,-9.852427,186.552110,4.968600,-9.952116,0.000000,0.000000,
180268340,187.026641,23.042517,3,0.297607,0.439331,-0.382629,-0.756287,0.054004,-0.005501,-0.500397,0.415749,-0.193207,-9.990444,186.689375,4.924002,-9.977252,0.000000,0.000000,
180279441,186.321838,23.047055,3,0.301575,0.437927,-0.386047,-0.753784,0.119290,0.230830,-0.963418,0.835459,-0.523903,-9.960771,186.674594,4.771839,-9.966444,0.000000,0.000000,
180288941,186.414123,23.042517,3,0.305542,0.436462,-0.389465,-0.751282,0.061956,0.161483,-0.652039,0.574693,-0.334580,-9.891765,186.670691,4.647800,-9.917466,0.000000,0.000000,
180298513,186.803771,23.033442,3,0.309509,0.434937,-0.392883,-0.748779,0.075267,0.009023,-0.698528,0.586765,-0.283340,-10.044173,186.739626,4.566833,-10.000568,0.000000,0.000000,
180309356,187.026641,23.042517,3,0.313477,0.433411,-0.396240,-0.746216,0.077409,0.260299,-0.925906,0.829603,-0.481902,-9.892335,186.842309,4.492004,-9.929580,0.000000,0.000000,
180318747,187.230132,23.042517,3,0.317383,0.431885,-0.399658,-0.743652,-0.013135,0.093580,-0.458461,0.424851,-0.181660,-9.852373,186.956688,4.444118,-9.878941,0.000000,0.000000,
180328557,187.230132,23.042517,3,0.321289,0.430298,-0.403076,-0.741089,0.031745,0.075241,-0.752517,0.665875,-0.300556,-9.969823,187.050979,4.377350,-9.938546,0.000000,0.000000,
180339681,186.822662,23.042517,3,0.325134,0.428711,-0.406433,-0.738464,0.113176,0.259830,-0.719997,0.633921,-0.437432,-9.833930,187.056311,4.242078,-9.869932,0.000000,0.000000,
180349143,186.711486,23.037979,3,0.328979,0.427124,-0.409790,-0.735779,-0.021475,0.188666,-0.426931,0.415017,-0.207451,-9.749473,187.031423,4.110017,-9.790929,0.000000,0.000000,
180358686,187.026641,23.042517,3,0.332825,0.425537,-0.413208,-0.733093,0.011425,0.139546,-1.042618,0.947414,-0.407606,-9.985495,187.069287,4.014158,-9.918539,0.000000,0.000000,
180369868,187.026641,23.042517,3,0.336609,0.423950,-0.416565,-0.730347,0.086696,0.335242,-0.666889,0.605593,-0.429607,-9.723030,187.105587,3.900510,-9.790311,0.000000,0.000000,
180379130,187.453551,23.051592,3,0.340454,0.422363,-0.419861,-0.727600,0.018107,-0.023731,-0.596621,0.519203,-0.192907,-10.001091,187.206452,3.848026,-9.928553,0.000000,0.000000,
180388950,187.526977,23.037979,3,0.344238,0.420776,-0.423218,-0.724792,0.138946,0.230036,-0.973485,0.855370,-0.526279,-9.914905,187.303760,3.787116,-9.919601,0.000000,0.000000,
180399926,187.638702,23.042517,3,0.348022,0.419189,-0.426636,-0.721924,0.122603,0.105264,-0.500850,0.418355,-0.306894,-9.888766,187.407460,3.716530,-9.899376,0.000000,0.000000,
180409366,187.434661,23.042517,3,0.351746,0.417542,-0.429993,-0.719055,-0.002726,0.000756,-0.637657,0.577770,-0.204642,-9.979426,187.447191,3.625434,-9.951878,0.000000,0.000000,
180418930,187.954406,23.047055,3,0.355530,0.415955,-0.433411,-0.716064,0.068392,0.348935,-0.815191,0.757993,-0.445372,-9.721445,187.576369,3.590272,-9.800742,0.000000,0.000000,
180430085,187.750396,23.047055,3,0.359253,0.414307,-0.436829,-0.713074,0.092894,-0.011120,-0.471041,0.384529,-0.225439,-9.960503,187.648381,3.498908,-9.905524,0.000000,0.000000,
180439306,187.434661,23.042517,3,0.363037,0.412659,-0.440186,-0.710022,0.142863,0.180074,-0.959556,0.836477,-0.499658,-9.928778,187.640193,3.382650,-9.920777,0.000000,0.000000,
180450324,187.935027,23.037979,3,0.366760,0.411011,-0.443604,-0.706970,0.097723,0.161014,-0.446129,0.391309,-0.279745,-9.792296,187.732097,3.308178,-9.836509,0.000000,0.000000,
180459463,187.954406,23.047055,3,0.370483,0.409363,-0.446960,-0.703857,0.205643,-0.023617,-0.786291,0.629870,-0.428709,-10.082202,187.803537,3.241640,-9.997650,0.000000,0.000000,
180469288,187.730987,23.037979,3,0.374207,0.407715,-0.450317,-0.700684,0.050590,0.332486,-0.833206,0.784562,-0.411332,-9.720420,187.821349,3.137882,-9.815824,0.000000,0.000000,
180480126,188.343597,23.037979,3,0.377869,0.406067,-0.453674,-0.697510,0.110865,0.006941,-0.472822,0.385026,-0.252665,-9.939675,187.952558,3.089310,-9.897052,0.000000,0.000000,
180489589,187.434661,23.042517,3,0.381531,0.404419,-0.457031,-0.694275,0.188069,0.095000,-0.913852,0.777490,-0.490435,-9.979299,187.884354,2.935273,-9.950998,0.000000,0.000000,
180499285,187.842712,23.042517,3,0.385193,0.402710,-0.460327,-0.691040,0.171800,0.219242,-0.520930,0.436665,-0.383240,-9.760853,187.904569,2.835905,-9.826288,0.000000,0.000000,
180510438,187.730987,23.037979,3,0.388794,0.401001,-0.463684,-0.687805,0.170177,0.042764,-0.732292,0.607012,-0.399503,-9.976035,187.903066,2.705098,-9.924503,0.000000,0.000000,
180519763,187.954406,23.047055,3,0.392395,0.399292,-0.466980,-0.684509,0.236350,0.315670,-0.815016,0.708106,-0.554836,-9.744467,187.937492,2.620246,-9.806423,0.000000,0.000000,
180529533,187.842712,23.042517,3,0.395935,0.397522,-0.470276,-0.681213,0.140236,0.120101,-0.463039,0.385840,-0.296808,-9.823343,187.944881,2.513487,-9.817521,0.000000,0.000000,
180540351,188.455322,23.042517,3,0.399475,0.395752,-0.473633,-0.677856,0.084903,0.157151,-0.858455,0.777146,-0.393478,-9.865497,188.067075,2.464608,-9.848985,0.000000,0.000000,
180549837,188.547637,23.037979,3,0.402954,0.393982,-0.476929,-0.674500,0.201670,0.256659,-0.770248,0.675501,-0.490736,-9.766869,188.180018,2.427290,-9.795125,0.000000,0.000000,
180559646,187.842712,23.042517,3,0.406433,0.392151,-0.480286,-0.671143,0.104294,0.083978,-0.459476,0.393798,-0.259006,-9.837483,188.140214,2.292430,-9.822908,0.000000,0.000000,
180572659,188.250762,23.042517,3,0.409790,0.390259,-0.483582,-0.667725,0.180236,0.194923,-0.941710,0.831233,-0.389086,-9.849903,188.189939,2.176812,-9.840613,0.000000,0.000000,
180581534,188.140075,23.037979,3,0.413147,0.388367,-0.486938,-0.664307,0.147004,0.275798,-0.476107,0.435376,-0.221393,-9.658552,188.199530,2.085313,-9.721205,0.000000,0.000000,
180590387,188.547637,23.037979,3,0.416504,0.386475,-0.490295,-0.660889,0.077577,-0.056257,-0.496535,0.419104,-0.219962,-9.975360,188.282796,2.037345,-9.887896,0.000000,0.000000,
180604889,188.455322,23.042517,3,0.419800,0.384521,-0.493652,-0.657471,0.166413,0.307566,-0.646156,0.593042,-0.294992,-9.653375,188.343713,1.916466,-9.734080,0.000000,0.000000,
180613046,188.658813,23.042517,3,0.423035,0.382568,-0.497009,-0.653931,0.069445,0.023355,-0.394912,0.343370,-0.077066,-9.866226,188.418217,1.874453,-9.820748,0.000000,0.000000,
180621778,188.639953,23.033442,3,0.426208,0.380615,-0.500427,-0.650452,0.150019,0.073701,-0.852513,0.742536,-0.306938,-9.921046,188.475756,1.813749,-9.886530,0.000000,0.000000,
180631641,188.046722,23.042517,3,0.429382,0.378601,-0.503784,-0.646912,0.035645,0.238507,-0.618727,0.605467,-0.138163,-9.697655,188.412864,1.669256,-9.762654,0.000000,0.000000,
180640693,188.770538,23.047055,3,0.432556,0.376587,-0.507141,-0.643311,0.115965,-0.031733,-0.597467,0.509813,-0.292644,-9.958886,188.494471,1.619631,-9.891355,0.000000,0.000000,
180650310,188.269653,23.051592,3,0.435669,0.374573,-0.510559,-0.639709,0.052867,0.319273,-0.910778,0.880936,-0.372195,-9.669137,188.467578,1.501559,-9.745610,0.000000,0.000000,
180661105,188.770538,23.047055,3,0.438782,0.372498,-0.513916,-0.636108,0.043641,0.105216,-0.420989,0.390923,-0.182100,-9.778310,188.539882,1.429661,-9.767055,0.000000,0.000000,
180670313,188.361938,23.047055,3,0.441833,0.370483,-0.517273,-0.632446,0.171016,0.015846,-0.641597,0.535210,-0.367122,-9.907590,188.519332,1.318234,-9.859228,0.000000,0.000000,
180680053,188.566497,23.047055,3,0.444885,0.368408,-0.520630,-0.628784,0.135948,0.218905,-0.716941,0.650244,-0.372350,-9.719644,188.540535,1.228822,-9.767679,0.000000,0.000000,
180690813,188.566497,23.047055,3,0.447876,0.366333,-0.523926,-0.625061,0.050550,0.031405,-0.473928,0.427442,-0.205277,-9.860428,188.558039,1.125652,-9.828510,0.000000,0.000000,
180700316,188.250762,23.042517,3,0.450867,0.364197,-0.527283,-0.621338,0.224797,0.005732,-0.926646,0.784807,-0.519024,-9.954866,188.510782,0.996141,-9.911384,0.000000,0.000000,
180710229,188.658813,23.042517,3,0.453857,0.362061,-0.530579,-0.617615,0.175860,0.303541,-0.606649,0.554947,-0.377224,-9.597638,188.547891,0.917638,-9.705607,0.000000,0.000000,
180720937,188.157928,23.047055,3,0.456848,0.359924,-0.533875,-0.613831,0.121690,-0.116832,-0.511832,0.410325,-0.278467,-10.001162,188.484143,0.766747,-9.899454,0.000000,0.000000,
180730485,188.955169,23.037979,3,0.459778,0.357727,-0.537109,-0.610046,0.231858,0.146760,-0.879520,0.761019,-0.506485,-9.791948,188.579200,0.727096,-9.828942,0.000000,0.000000,
180741238,188.455322,23.042517,3,0.462708,0.355530,-0.540405,-0.606201,0.143606,0.082389,-0.479610,0.404186,-0.294567,-9.790402,188.563259,0.607786,-9.803665,0.000000,0.000000,
180750632,188.566497,23.047055,3,0.465576,0.353333,-0.543640,-0.602417,0.203529,-0.043772,-0.538839,0.426827,-0.376620,-9.909449,188.569133,0.515031,-9.873045,0.000000,0.000000,
180760205,188.455322,23.042517,3,0.468384,0.351135,-0.546814,-0.598572,0.197038,0.317258,-0.794881,0.732560,-0.433177,-9.593667,188.552339,0.410304,-9.689810,0.000000,0.000000,
180771231,189.066894,23.042517,3,0.471191,0.348816,-0.550049,-0.594788,0.198091,-0.008323,-0.374602,0.279055,-0.311058,-9.849735,188.652584,0.359688,-9.794698,0.000000,0.000000,
180780836,188.361938,23.047055,3,0.473938,0.346558,-0.553223,-0.590942,0.213887,0.128698,-0.877738,0.767283,-0.482177,-9.779812,188.601158,0.232357,-9.784936,0.000000,0.000000,
180790735,188.566497,23.047055,3,0.476624,0.344238,-0.556396,-0.587158,0.202504,0.194761,-0.489877,0.427946,-0.341889,-9.654048,188.596502,0.132845,-9.699091,0.000000,0.000000,
180801515,188.658813,23.042517,3,0.479309,0.341919,-0.559509,-0.583374,0.167302,0.015353,-0.395757,0.316621,-0.290088,-9.816787,188.609028,0.034136,-9.776284,0.000000,0.000000,
180810902,188.361938,23.047055,3,0.481934,0.339539,-0.562622,-0.579529,0.245998,0.215590,-0.905128,0.802108,-0.510557,-9.674748,188.562651,-0.085126,-9.709691,0.000000,0.000000,
180820643,188.658813,23.042517,3,0.484558,0.337097,-0.565796,-0.575745,0.241602,0.173667,-0.390428,0.314436,-0.331520,-9.646381,188.579365,-0.168159,-9.668168,0.000000,0.000000,
180831656,188.566497,23.047055,3,0.487061,0.334656,-0.568909,-0.571960,0.244616,-0.028430,-0.766833,0.639067,-0.480451,-9.882395,188.574495,-0.278355,-9.808673,0.000000,0.000000,
180841132,189.066894,23.042517,3,0.489624,0.332214,-0.572021,-0.568115,0.212817,0.349339,-0.728989,0.677001,-0.387827,-9.514317,188.663674,-0.311589,-9.615612,0.000000,0.000000,
180850933,188.566497,23.047055,3,0.492065,0.329712,-0.575134,-0.564270,0.239511,-0.024736,-0.452513,0.342934,-0.372372,-9.831231,188.641947,-0.419022,-9.757030,0.000000,0.000000,
180861733,188.677703,23.051592,3,0.494507,0.327148,-0.578247,-0.560425,0.298434,0.273157,-0.832094,0.732386,-0.502975,-9.567371,188.643567,-0.518356,-9.632638,0.000000,0.000000,
180871191,188.862853,23.042517,3,0.496887,0.324646,-0.581299,-0.556580,0.274607,0.003326,-0.357095,0.254389,-0.369873,-9.774466,188.679291,-0.585586,-9.725658,0.000000,0.000000,
180881078,188.380828,23.056130,3,0.499268,0.322083,-0.584412,-0.552734,0.210174,0.128205,-0.631898,0.552224,-0.374295,-9.695146,188.617157,-0.715405,-9.705647,0.000000,0.000000,
180891957,189.289825,23.051592,3,0.501526,0.319458,-0.587463,-0.548889,0.261055,0.223327,-0.660264,0.576029,-0.418566,-9.588683,188.734792,-0.743387,-9.628931,0.000000,0.000000,
180901444,188.882262,23.051592,3,0.503784,0.316833,-0.590576,-0.545044,0.228725,0.081950,-0.323614,0.243294,-0.303662,-9.697555,188.754923,-0.818392,-9.673938,0.000000,0.000000,
180911133,188.473144,23.051592,3,0.505920,0.314209,-0.593628,-0.541199,0.271509,0.148397,-0.939246,0.822694,-0.523054,-9.673866,188.693791,-0.944247,-9.673892,0.000000,0.000000,
180922007,189.066894,23.042517,3,0.508057,0.311523,-0.596741,-0.537354,0.294720,0.272664,-0.586254,0.505044,-0.397554,-9.515698,188.752835,-1.005510,-9.570136,0.000000,0.000000,
180931468,189.159209,23.037979,3,0.510193,0.308777,-0.599854,-0.533447,0.339267,-0.032088,-0.581227,0.435201,-0.503778,-9.787102,188.818983,-1.051363,-9.712436,0.000000,0.000000,
180941417,188.974059,23.047055,3,0.512207,0.306091,-0.602905,-0.529602,0.285141,0.212389,-0.905466,0.797437,-0.502213,-9.588490,188.837085,-1.129119,-9.631143,0.000000,0.000000,
180952284,189.066894,23.042517,3,0.514160,0.303284,-0.606018,-0.525696,0.268206,0.081974,-0.363545,0.270948,-0.339798,-9.667498,188.867285,-1.208041,-9.654986,0.000000,0.000000,
180961771,188.770538,23.047055,3,0.516113,0.300537,-0.609131,-0.521790,0.261319,-0.022462,-0.620143,0.499252,-0.440516,-9.786996,188.837255,-1.312110,-9.741568,0.000000,0.000000,
180972555,189.159209,23.037979,3,0.518005,0.297729,-0.612244,-0.517883,0.290765,0.339712,-0.690073,0.618697,-0.391718,-9.436489,188.882880,-1.377248,-9.541475,0.000000,0.000000,
180981990,188.770538,23.047055,3,0.519775,0.294922,-0.615417,-0.513977,0.372634,-0.003064,-0.377737,0.248110,-0.454585,-9.700749,188.848402,-1.481821,-9.645938,0.000000,0.000000,
180991605,189.086303,23.051592,3,0.521545,0.291992,-0.618530,-0.510071,0.309975,0.138746,-0.860400,0.744863,-0.518177,-9.618367,188.878245,-1.547161,-9.627854,0.000000,0.000000,
181002667,188.955169,23.037979,3,0.523254,0.289124,-0.621643,-0.506165,0.260886,0.221715,-0.640468,0.558702,-0.372956,-9.533752,188.874957,-1.643961,-9.566135,0.000000,0.000000,
181011993,188.862853,23.042517,3,0.524902,0.286194,-0.624756,-0.502258,0.236479,0.016201,-0.475534,0.378774,-0.359792,-9.729160,188.856927,-1.736163,-9.673058,0.000000,0.000000,
181021856,189.270415,23.042517,3,0.526489,0.283203,-0.627930,-0.498352,0.315115,0.082984,-0.895155,0.766915,-0.546272,-9.652930,188.916737,-1.784337,-9.659855,0.000000,0.000000,
181032571,188.566497,23.047055,3,0.527954,0.280273,-0.631042,-0.494446,0.181918,0.186687,-0.370930,0.322744,-0.218264,-9.576492,188.831485,-1.926710,-9.605181,0.000000,0.000000,
181042139,188.566497,23.047055,3,0.529419,0.277283,-0.634155,-0.490601,0.226809,-0.079860,-0.595172,0.480528,-0.427231,-9.810501,188.762965,-2.051108,-9.739845,0.000000,0.000000,
181051883,189.382690,23.047055,3,0.530823,0.274231,-0.637329,-0.486694,0.235251,0.305189,-0.686341,0.625701,-0.316275,-9.446956,188.858547,-2.072601,-9.547746,0.000000,0.000000,
181062910,189.178619,23.047055,3,0.532166,0.271118,-0.640442,-0.482849,0.173242,-0.050240,-0.429706,0.345859,-0.314294,-9.786323,188.895030,-2.144156,-9.704220,0.000000,0.000000,
181072321,189.178619,23.047055,3,0.533447,0.268005,-0.643555,-0.479004,0.236491,0.086161,-0.854886,0.746794,-0.453811,-9.648596,188.927546,-2.202180,-9.667737,0.000000,0.000000,
181082161,189.066894,23.042517,3,0.534729,0.264893,-0.646606,-0.475159,0.228730,0.116930,-0.513290,0.437585,-0.317800,-9.607751,188.931501,-2.280847,-9.628394,0.000000,0.000000,
181092867,189.066894,23.042517,3,0.536011,0.261658,-0.649658,-0.471313,0.221714,-0.006205,-0.660204,0.552983,-0.405845,-9.718139,188.931876,-2.369490,-9.687254,0.000000,0.000000,
181102371,188.770538,23.047055,3,0.537231,0.258423,-0.652771,-0.467407,0.132415,0.289985,-0.870249,0.819896,-0.277710,-9.489569,188.878722,-2.478180,-9.557599,0.000000,0.000000,
181112185,188.658813,23.042517,3,0.538452,0.255188,-0.655823,-0.463562,0.131022,-0.023996,-0.352602,0.286415,-0.237049,-9.760929,188.812758,-2.598986,-9.690958,0.000000,0.000000,
181123231,188.789947,23.056130,3,0.539612,0.251892,-0.658875,-0.459656,0.192045,0.178491,-0.989673,0.899203,-0.405350,-9.556973,188.779200,-2.707196,-9.603081,0.000000,0.000000,
181132695,188.658813,23.042517,3,0.540710,0.248596,-0.661865,-0.455750,0.170538,0.242129,-0.562134,0.515830,-0.220927,-9.505321,188.730606,-2.811033,-9.538964,0.000000,0.000000,
181142425,189.178619,23.047055,3,0.541809,0.245300,-0.664856,-0.451904,0.189920,0.088376,-0.362868,0.305199,-0.232552,-9.624528,188.786669,-2.853561,-9.595081,0.000000,0.000000,
181153422,188.770538,23.047055,3,0.542908,0.241943,-0.667786,-0.448059,0.193392,0.156411,-0.958366,0.878327,-0.407263,-9.558257,188.751691,-2.960519,-9.570929,0.000000,0.000000,
181162766,188.585387,23.056130,3,0.543945,0.238525,-0.670715,-0.444214,0.168176,0.254536,-0.474664,0.440664,-0.172841,-9.483567,188.692467,-3.068320,-9.513632,0.000000,0.000000,
181172489,188.770538,23.047055,3,0.544983,0.235168,-0.673645,-0.440369,0.154015,-0.010435,-0.658806,0.578424,-0.358896,-9.716182,188.676780,-3.153905,-9.646478,0.000000,0.000000,
181183547,188.455322,23.042517,3,0.546021,0.231750,-0.676514,-0.436462,0.143471,0.346878,-0.629416,0.609503,-0.148432,-9.419754,188.599863,-3.283250,-9.497778,0.000000,0.000000,
181192934,188.473144,23.051592,3,0.547058,0.228271,-0.679382,-0.432556,0.190875,-0.035403,-0.391895,0.313231,-0.303338,-9.717970,188.544868,-3.389204,-9.642196,0.000000,0.000000,
181203798,188.770538,23.047055,3,0.548096,0.224792,-0.682190,-0.428589,0.225581,0.209128,-0.805978,0.725849,-0.339770,-9.479104,188.549768,-3.466543,-9.535228,0.000000,0.000000,
181213255,188.770538,23.047055,3,0.549072,0.221313,-0.684998,-0.424683,0.213403,0.320002,-0.608599,0.567460,-0.196881,-9.391292,188.557929,-3.529773,-9.440824,0.000000,0.000000,
181222887,188.065612,23.051592,3,0.550049,0.217896,-0.687683,-0.420776,0.170334,-0.025584,-0.372736,0.295736,-0.267559,-9.709308,188.431305,-3.679497,-9.616916,0.000000,0.000000,
