Code compiled on Mar 18 2026 at 15:50:09
﻿Simulation Mode (T/F),F
Airbrakes Enabled (T/F),T
Log File Name,RF
Sim File Name (if applicable),Sim
Burnout Mass (kg),0.59
Air Density (kg/m^3),1.19
Rocket CD,0.525
Airbrake CD,0.725
Rocket Area (m^2),0.00243
Kalman Model Y STD,1
Kalman Model V STD,0.4
Kalman Model A STD,5
Kalman Measurement Y STD,5
Kalman Measurement A STD,2
Target Apogee (m),228.6
Launch Acceleration Threshold (m/s^2),40
Coast Lockout (s),1.5
KP (1/s),0.24
Altimeter Lockout (s),60
Control Max Velocity (dep/s),2

Calibration point: 250.791666
Time (us),Altitude AGL (m),Temperature (deg C),Mode,IMU Quat W,IMU Quat X,IMU Quat Y,IMU Quat Z,IMU Raw Local Acceleration X,IMU Raw Local Acceleration Y,IMU Raw Local Acceleration Z,IMU Global Acceleration x,IMU Global Acceleration y,IMU Global Acceleration z,State Estimation y,State Estimation v,State Estimation a,Commanded servo deployment,Real servo deployment,
299050567,-0.946391,25.524047,1,0.761108,0.003113,-0.004517,-0.648621,-2.191702,-2.354056,40.257515,-3.105960,1.828780,30.423401,-0.413982,0.087414,19.953835,0.000000,0.000000,
299059197,-0.451395,25.519512,2,0.761108,0.003113,-0.004517,-0.648621,-3.546938,-5.532534,88.924670,-6.990094,2.717454,79.050097,-0.415652,0.748175,58.713232,0.000000,0.000000,
299070287,-0.358683,25.514976,2,0.760986,0.003113,-0.004517,-0.648743,-2.642714,-3.689852,90.379166,-5.042539,2.119885,80.526603,-0.391149,1.626778,73.019943,0.000000,0.000000,
299078806,-0.341685,25.524047,2,0.760681,0.003235,-0.004761,-0.649048,5.008666,-4.765252,94.724708,-5.003351,-5.567142,84.880083,-0.364470,2.362159,80.798639,0.000000,0.000000,
299088613,-0.433375,25.528583,2,0.762207,0.003052,-0.005737,-0.647278,0.446301,-12.544719,97.664435,-13.549089,-2.189594,87.705884,-0.349704,3.212683,85.328886,0.000000,0.000000,
299097550,0.061651,25.524047,2,0.766907,0.002563,-0.006592,-0.641724,0.043506,-9.935250,97.826911,-11.079413,-1.358578,87.893385,-0.240547,4.046199,87.010863,0.000000,0.000000,
299106997,-0.635279,25.528583,2,0.771423,0.001648,-0.007263,-0.636292,-2.413654,-4.783965,97.209872,-6.441309,2.102638,87.319782,-0.272143,4.825793,87.213472,0.000000,0.000000,
299117621,0.061651,25.524047,2,0.774048,0.001587,-0.006470,-0.633118,-3.218265,-4.203761,98.392869,-5.935353,2.877591,88.512849,-0.153420,5.804068,88.065694,0.000000,0.000000,
299127118,0.044653,25.514976,2,0.775391,0.002136,-0.006470,-0.631470,-2.953299,-9.806251,102.452913,-11.501937,1.402955,92.508259,-0.056865,6.707116,90.979435,0.000000,0.000000,
299136718,-0.341685,25.524047,2,0.776672,0.002380,-0.006042,-0.629822,-0.271239,-13.739860,101.480811,-14.753185,-2.179010,91.514335,-0.041541,7.551935,91.330258,0.000000,0.000000,
299147698,0.044653,25.514976,2,0.776733,0.002319,-0.005554,-0.629761,3.677845,-8.523391,98.478903,-8.710322,-5.031654,88.601785,0.062757,8.536278,89.540738,0.000000,0.000000,
299157257,0.044653,25.514976,2,0.776611,0.002441,-0.005310,-0.630005,-2.475571,-5.161915,101.400242,-6.706718,1.652072,91.525764,0.145236,9.409609,90.842655,0.000000,0.000000,
299168265,0.044653,25.514976,2,0.777527,0.002441,-0.005493,-0.628784,2.536368,-15.041178,102.224039,-15.357650,-5.311918,92.268885,0.235598,10.412542,91.778074,0.000000,0.000000,
299177692,0.741094,25.510440,2,0.777588,0.002625,-0.005371,-0.628784,1.133630,-9.191577,101.965072,-9.930947,-2.767343,92.063326,0.432738,11.343296,91.965164,0.000000,0.000000,
299187204,0.557195,25.519512,2,0.776794,0.002747,-0.005066,-0.629761,-1.244718,-6.241553,101.736524,-7.511565,0.139949,91.857228,0.568131,12.232310,91.894373,0.000000,0.000000,
299198047,0.464468,25.524047,2,0.776794,0.002869,-0.004883,-0.629761,4.942099,-11.874489,101.284278,-11.724308,-7.127333,91.370915,0.686664,13.210638,91.551053,0.000000,0.000000,
299207500,1.346410,25.510440,2,0.776917,0.003113,-0.004944,-0.629578,2.567104,-8.906990,98.832720,-9.318066,-4.225066,88.936555,0.939234,14.132365,89.836288,0.000000,0.000000,
299217319,0.758611,25.519512,2,0.777710,0.002930,-0.005005,-0.628540,0.971466,-8.176692,99.455149,-8.921994,-2.501854,89.563191,1.048417,14.989625,89.657172,0.000000,0.000000,
299228246,1.161474,25.519512,2,0.779175,0.002991,-0.005127,-0.626770,-0.086405,-7.734088,94.421514,-8.671944,-1.405922,84.528155,1.238267,15.929110,86.293210,0.000000,0.000000,
299237741,1.639562,25.505904,2,0.779541,0.003418,-0.005249,-0.626282,-1.248230,-11.105417,101.561611,-12.369846,-1.054674,91.615918,1.469252,16.850923,89.784210,0.000000,0.000000,
299247443,1.951254,25.510440,2,0.778870,0.003174,-0.005066,-0.627136,0.892541,-9.308459,103.747867,-10.132077,-2.719898,93.838115,1.727787,17.820926,92.443042,0.000000,0.000000,
299258046,2.354147,25.510440,2,0.775452,0.002197,-0.004517,-0.631409,-2.879532,-0.744892,101.402403,-2.295106,2.902178,91.577915,2.039433,18.868917,91.875635,0.000000,0.000000,
299267678,2.261419,25.514976,2,0.773682,0.001709,-0.004395,-0.633545,-1.347263,-4.819473,103.300571,-5.914838,0.667018,93.449747,2.267262,19.796896,92.908047,0.000000,0.000000,
299277652,3.068288,25.514976,2,0.772766,0.001892,-0.004822,-0.634644,4.944533,-8.584467,101.138087,-8.445034,-6.203637,91.279591,2.619531,20.805818,91.839997,0.000000,0.000000,
299288506,2.866308,25.514976,2,0.773193,0.001526,-0.005127,-0.634155,0.561425,-8.279570,103.952373,-9.026295,-1.747346,94.075966,2.897336,21.856498,93.306500,0.000000,0.000000,
299298012,3.765462,25.510440,2,0.774170,0.000671,-0.005066,-0.632996,-2.014404,-6.963794,103.862948,-8.123416,1.141466,93.991105,3.272431,22.858433,93.755515,0.000000,0.000000,
299307720,4.168432,25.510440,2,0.774597,0.000793,-0.004639,-0.632446,-1.100787,-6.448595,102.341319,-7.366991,0.264689,92.483854,3.666819,23.866505,92.921476,0.000000,0.000000,
299318766,4.369924,25.510440,2,0.776550,0.000427,-0.004761,-0.630005,-0.392570,-8.104864,101.839187,-8.812338,-0.749636,91.977483,4.068052,24.968892,92.302343,0.000000,0.000000,
299328111,4.773428,25.510440,2,0.779907,-0.000427,-0.005371,-0.625854,-0.903844,-7.184196,101.062692,-7.991017,0.067810,91.204809,4.437792,25.908638,91.582508,0.000000,0.000000,
299337968,4.681188,25.514976,2,0.783203,-0.001953,-0.006531,-0.621704,-0.845395,-6.886988,101.990519,-7.684199,0.398635,92.134674,4.743354,26.846644,91.944657,0.000000,0.000000,
299348706,5.159429,25.501369,2,0.786438,-0.003967,-0.008362,-0.617615,-0.730944,-7.505956,101.027834,-8.287431,0.600114,91.165128,5.114975,27.876665,91.433390,0.000000,0.000000,
299358293,5.579977,25.510440,2,0.789551,-0.006470,-0.010681,-0.613586,-1.030451,-6.734421,100.555374,-7.669123,1.679626,90.676025,5.473675,28.803323,90.936660,0.000000,0.000000,
299367973,6.294332,25.514976,2,0.792603,-0.009583,-0.013611,-0.609497,-1.538971,-6.689586,100.520178,-7.849526,2.958120,90.598693,5.910725,29.780795,90.715001,0.000000,0.000000,
299378958,6.991720,25.510440,2,0.795593,-0.013184,-0.017090,-0.605408,-0.868858,-7.126113,99.730312,-8.221289,3.088898,89.802919,6.446188,30.899107,90.116799,0.000000,0.000000,
299388349,7.083486,25.505904,2,0.798584,-0.017212,-0.021118,-0.601318,-1.496874,-6.755769,99.394628,-8.200780,4.823452,89.375390,6.859928,31.817024,89.630535,0.000000,0.000000,
299398192,7.706167,25.514976,2,0.801514,-0.021729,-0.025635,-0.597046,-1.651651,-6.575495,99.008482,-8.271572,6.169573,88.900242,7.336170,32.795293,89.151562,0.000000,0.000000,
299408895,7.890737,25.505904,2,0.804382,-0.026672,-0.030579,-0.592712,-1.841937,-6.402953,97.807666,-8.383672,7.596986,87.577322,7.796224,33.800492,88.119069,0.000000,0.000000,
299418530,8.916616,25.514976,2,0.807251,-0.031982,-0.036011,-0.588257,-2.176359,-6.234863,97.159909,-8.591320,9.279440,86.753901,8.336187,34.773834,87.223703,0.000000,0.000000,
299429418,9.798269,25.501369,2,0.810120,-0.037598,-0.041809,-0.583618,-2.440241,-6.245013,97.312275,-9.022658,10.997008,86.698807,8.994458,35.896119,86.879446,0.000000,0.000000,
299438816,10.109670,25.505904,2,0.812927,-0.043579,-0.047974,-0.578796,-2.650767,-5.996740,96.390527,-9.183598,12.701353,85.530923,9.544932,36.837314,85.994997,0.000000,0.000000,
299448452,10.420614,25.510440,2,0.815674,-0.049744,-0.054443,-0.573792,-3.066405,-5.993733,95.590665,-9.707844,14.564006,84.408949,10.068047,37.757242,84.954761,0.000000,0.000000,
299459346,12.035177,25.510440,2,0.818481,-0.056091,-0.061096,-0.568542,-3.644941,-5.332091,94.256827,-9.681897,16.709993,82.678469,10.853383,38.896498,83.461820,0.000000,0.000000,
299468767,13.337423,25.505904,2,0.821289,-0.062561,-0.067810,-0.562988,-3.959854,-5.288435,94.277716,-10.216128,18.615755,82.296065,11.689687,39.976347,82.697249,0.000000,0.000000,
299478639,14.162160,25.514976,2,0.824219,-0.069092,-0.074585,-0.557068,-4.260354,-5.397378,93.544375,-10.882912,20.299271,81.122343,12.552043,41.076574,81.664327,0.000000,0.000000,
299489368,15.373891,25.514976,2,0.827271,-0.075623,-0.081299,-0.550720,-4.742816,-5.057598,94.024849,-11.295809,22.507682,81.053125,13.526954,42.286936,81.263470,0.000000,0.000000,
299498975,15.667440,25.510440,2,0.830505,-0.082153,-0.087830,-0.543823,-5.146885,-4.957880,93.216757,-11.841701,24.235249,79.710461,14.338555,43.313987,80.244910,0.000000,0.000000,
299508624,17.080556,25.510440,2,0.833984,-0.088501,-0.094055,-0.536438,-5.503759,-4.259844,91.807656,-11.811008,25.898690,77.763491,15.274338,44.395983,78.617436,0.000000,0.000000,
299519701,18.199728,25.514976,2,0.837646,-0.094666,-0.099854,-0.528564,-6.123212,-3.884501,91.520572,-12.252739,27.832611,76.823649,16.319733,45.599156,77.440958,0.000000,0.000000,
299529220,19.595632,25.505904,2,0.841736,-0.100586,-0.105103,-0.519958,-6.264440,-3.322872,90.728937,-12.288095,29.167930,75.519956,17.372055,46.718657,76.181048,0.000000,0.000000,
299538993,20.823995,25.514976,2,0.846436,-0.106323,-0.109619,-0.510132,-6.527149,-3.073527,90.672915,-12.695718,30.537366,74.937710,18.479741,47.868598,75.365596,0.000000,0.000000,
299549654,21.632314,25.514976,2,0.851929,-0.111877,-0.113281,-0.498840,-6.734418,-2.776725,89.275252,-12.905387,31.331836,73.117809,19.585683,49.028017,73.891355,0.000000,0.000000,
299559124,22.549612,25.519512,2,0.858459,-0.117188,-0.115967,-0.485657,-6.415215,-2.282849,88.609931,-12.741853,31.830807,72.187738,20.609287,50.071803,72.774019,0.000000,0.000000,
299568770,23.854238,25.514976,2,0.866028,-0.122253,-0.117676,-0.470276,-6.664580,-2.294251,87.818530,-13.266137,32.336140,71.065861,21.703990,51.147171,71.653705,0.000000,0.000000,
299579766,24.661764,25.514976,2,0.874695,-0.127075,-0.118347,-0.452515,-6.253402,-1.654931,86.707173,-12.860438,32.391023,69.856780,22.825419,52.269043,70.475169,0.000000,0.000000,
299589358,26.168020,25.510440,2,0.883972,-0.131531,-0.118042,-0.432922,-6.072963,-1.687558,87.159267,-13.239291,32.633284,70.174724,23.957253,53.348503,70.278132,0.000000,0.000000,
299600248,26.976766,25.510440,2,0.893616,-0.135437,-0.116821,-0.411682,-5.791181,-1.646412,85.667210,-13.267225,32.028277,68.773762,25.108961,54.461252,69.291475,0.000000,0.000000,
299609716,27.785024,25.510440,2,0.903320,-0.138794,-0.114929,-0.389282,-5.400183,-1.763031,85.513605,-13.430208,31.557550,68.744026,26.129956,55.438738,68.932433,0.000000,0.000000,
299619285,28.391409,25.510440,2,0.912964,-0.141296,-0.112427,-0.365845,-5.373370,-1.926419,84.642126,-13.770342,30.880667,68.005529,27.087660,56.361765,68.324515,0.000000,0.000000,
299630122,29.107351,25.514976,2,0.922363,-0.142944,-0.109619,-0.341797,-5.119942,-1.624990,82.961731,-13.545453,29.980580,66.542814,28.081166,57.324543,67.155961,0.000000,0.000000,
299639455,29.805746,25.510440,2,0.931152,-0.143738,-0.106689,-0.317627,-4.665832,-1.977056,83.131475,-13.772947,29.007720,67.048283,28.942618,58.159173,67.085346,0.000000,0.000000,
299649378,29.621328,25.519512,2,0.939392,-0.143616,-0.103821,-0.293457,-4.338225,-2.102388,82.085077,-13.809074,27.747709,66.355194,29.650220,58.898645,66.606465,0.000000,0.000000,
299660451,31.514791,25.505904,2,0.947083,-0.142639,-0.101135,-0.269165,-4.207541,-2.090356,81.099091,-13.948899,26.645129,65.663448,30.656208,59.848234,65.987977,0.000000,0.000000,
299669886,31.422842,25.510440,2,0.954224,-0.140869,-0.098511,-0.244751,-3.665911,-2.846742,80.907962,-14.198799,24.870074,66.013409,31.367676,60.564203,66.004661,0.000000,0.000000,
299679442,31.220815,25.510440,2,0.960815,-0.138367,-0.096069,-0.220154,-3.494365,-2.965054,79.224462,-14.218776,23.235181,64.738920,31.921793,61.165139,65.174500,0.000000,0.000000,
299690489,32.636068,25.510440,2,0.966797,-0.135193,-0.093872,-0.195374,-3.511141,-2.901869,78.708318,-14.474612,22.120393,64.474587,32.735367,61.962463,64.715452,0.000000,0.000000,
299699928,32.930074,25.505904,2,0.972229,-0.131348,-0.091980,-0.170593,-3.509513,-3.757355,78.140596,-15.056318,20.073097,64.376797,33.359613,62.593541,64.493340,0.000000,0.000000,
299709677,33.536245,25.505904,2,0.976929,-0.127075,-0.090454,-0.145996,-3.151312,-3.775327,77.055297,-14.884784,18.496372,63.674673,34.005946,63.235366,63.956403,0.000000,0.000000,
299720481,34.675802,25.519512,2,0.980957,-0.122375,-0.089233,-0.121521,-3.437229,-4.625994,76.835653,-15.644454,16.505686,63.818978,34.818495,64.004410,63.866273,0.000000,0.000000,
299729975,35.245901,25.501369,2,0.984375,-0.117432,-0.088379,-0.097229,-3.570332,-4.871514,76.061950,-15.980259,14.848924,63.313780,35.509152,64.656809,63.503912,0.000000,0.000000,
299739672,35.466604,25.510440,2,0.987061,-0.112305,-0.087769,-0.073242,-3.864046,-5.310556,76.034236,-16.561045,13.191536,63.523896,36.131140,65.267738,63.517018,0.000000,0.000000,
299750651,36.569173,25.505904,2,0.989136,-0.107178,-0.087463,-0.049561,-3.652684,-5.789387,74.330991,-16.326311,11.062338,62.188230,36.933558,66.002872,62.645509,0.000000,0.000000,
299759996,37.488821,25.510440,2,0.990601,-0.102173,-0.087280,-0.026184,-3.587086,-5.519004,72.390682,-16.035732,9.700637,60.428063,37.657038,66.633538,61.191158,0.000000,0.000000,
299771020,38.812368,25.514976,2,0.991394,-0.097412,-0.087097,-0.003052,-3.951500,-6.019006,72.231520,-16.462230,8.033520,60.436101,38.611977,67.437164,60.695944,0.000000,0.000000,
299780227,39.106588,25.510440,2,0.991638,-0.093079,-0.086914,0.019714,-4.040526,-6.318634,70.773565,-16.287882,6.392667,59.187574,39.328093,68.041150,59.706654,0.000000,0.000000,
299790051,40.118520,25.510440,2,0.991333,-0.089294,-0.086487,0.042297,-3.703498,-6.577292,71.104445,-15.907278,5.245106,59.711817,40.147579,68.721499,59.710043,0.000000,0.000000,
299800817,40.909719,25.501369,2,0.990479,-0.086121,-0.085938,0.064575,-4.082889,-6.539090,69.013408,-15.765735,4.036761,57.708721,41.033615,69.433531,58.397441,0.000000,0.000000,
299810325,42.142171,25.510440,2,0.989075,-0.083557,-0.085144,0.086609,-4.117251,-6.154680,67.910499,-15.440840,3.480419,56.654959,41.904169,70.104504,57.254607,0.000000,0.000000,
299820003,43.153371,25.510440,2,0.987183,-0.081787,-0.084167,0.108215,-3.638802,-6.515265,67.805346,-14.662580,2.611005,56.768986,42.819413,70.801837,56.936108,0.000000,0.000000,
299831008,43.852712,25.505904,2,0.984802,-0.080872,-0.082947,0.129578,-4.003847,-5.720531,66.407980,-14.665767,2.620620,55.287622,43.795622,71.532597,55.854921,0.000000,0.000000,
299840384,45.379903,25.510440,2,0.981873,-0.080811,-0.081421,0.150696,-3.914346,-5.476439,65.590071,-14.211773,2.430485,54.540902,44.765766,72.233441,54.993104,0.000000,0.000000,
299850273,45.269704,25.505904,2,0.978577,-0.081665,-0.079529,0.171570,-3.598638,-5.621127,64.791209,-13.424377,2.113289,53.896177,45.577128,72.826028,54.273666,0.000000,0.000000,
299860947,45.582204,25.510440,2,0.974792,-0.083191,-0.077271,0.192200,-3.464427,-4.750030,63.379772,-13.019622,2.721105,52.443849,46.358336,73.386939,53.073546,0.000000,0.000000,
299870568,47.680898,25.496833,2,0.970520,-0.085510,-0.074768,0.212463,-3.232612,-4.854478,62.765620,-12.345103,2.699108,51.953727,47.314756,74.044361,52.339098,0.000000,0.000000,
299880410,47.809774,25.510440,2,0.965942,-0.088318,-0.071960,0.232239,-2.976473,-4.117882,61.098097,-11.828561,3.399634,50.256455,48.138633,74.597497,50.973159,0.000000,0.000000,
299891480,48.711294,25.505904,2,0.961060,-0.091614,-0.068848,0.251465,-2.659231,-3.111153,60.331126,-11.590281,4.549222,49.376698,49.074787,75.212238,49.926092,0.000000,0.000000,
299900845,49.815237,25.501369,2,0.955811,-0.095276,-0.065430,0.270325,-2.671937,-2.939309,58.960522,-11.186085,4.781364,48.026649,49.920054,75.750115,48.680310,0.000000,0.000000,
299910697,50.643941,25.510440,2,0.950317,-0.099182,-0.061890,0.288574,-2.072479,-2.726347,58.009542,-10.388793,5.477711,47.113847,50.804259,76.299920,47.652918,0.000000,0.000000,
299921442,51.655996,25.510440,2,0.944519,-0.103210,-0.058105,0.306396,-1.790317,-2.279075,57.476459,-10.088962,6.302195,46.501397,51.786453,76.900289,46.897675,0.000000,0.000000,
299930971,52.466726,25.510440,2,0.938477,-0.107117,-0.054199,0.323853,-1.674628,-2.470115,56.025960,-9.418811,6.365300,45.139125,52.648774,77.411093,45.744300,0.000000,0.000000,
299940647,53.571615,25.505904,2,0.932190,-0.110718,-0.050171,0.341003,-0.945734,-2.106673,54.057826,-8.533345,7.130310,43.152722,53.572667,77.937396,44.044569,0.000000,0.000000,
299951727,53.571615,25.505904,2,0.925720,-0.113770,-0.046204,0.357727,-0.664432,-2.213632,52.125944,-7.743882,7.213303,41.287330,54.438438,78.396030,42.236182,0.000000,0.000000,
299961145,55.100210,25.510440,2,0.919189,-0.116150,-0.042358,0.373840,-0.625078,-2.026579,49.809622,-7.283280,7.209581,38.990682,55.302456,78.841053,40.107563,0.000000,0.000000,
299972004,56.094534,25.501369,2,0.912659,-0.117859,-0.038818,0.389404,-0.586253,-2.096725,46.374483,-6.478201,6.742808,35.672601,56.309060,79.323387,37.198813,0.000000,0.000000,
299981429,56.426015,25.514976,2,0.906128,-0.118958,-0.035706,0.404358,-0.664649,-2.116522,43.978906,-5.990573,6.343407,33.359809,57.079919,79.650390,34.680930,0.000000,0.000000,
299991091,58.341482,25.510440,2,0.899841,-0.118896,-0.033508,0.418396,-0.629171,-1.634647,40.320922,-5.634279,5.998235,29.712116,58.087117,80.086026,31.422045,0.000000,0.000000,
300001945,59.337148,25.501369,2,0.893494,-0.118225,-0.031860,0.432007,-0.709476,-2.053842,38.302668,-4.967499,5.251619,27.873185,59.192214,80.536295,29.094463,0.000000,0.000000,
300011271,60.257803,25.505904,2,0.887207,-0.117249,-0.030640,0.445251,-0.925251,-1.457838,34.570255,-4.900172,4.668051,24.147778,60.143890,80.886309,25.850091,0.000000,0.000000,
300021071,60.368703,25.510440,2,0.880798,-0.115967,-0.029846,0.458069,-1.190484,-1.593328,32.944081,-4.649441,3.973566,22.631564,60.979651,81.134537,23.739161,0.000000,0.000000,
300032115,61.585317,25.510440,2,0.874390,-0.114441,-0.029419,0.470642,-1.430611,-1.376933,30.315084,-4.493675,3.306278,20.059880,61.990312,81.428375,21.326038,0.000000,0.000000,
300041613,61.787923,25.510440,2,0.867859,-0.112915,-0.029297,0.482971,-1.720050,-1.121434,28.794344,-4.581027,2.801539,18.567329,62.726475,81.579609,19.516686,0.000000,0.000000,
300051331,62.911947,25.514976,2,0.861145,-0.111389,-0.029358,0.495117,-1.823068,-1.366252,26.683284,-4.060878,2.107220,16.587229,63.554680,81.762455,17.595347,0.000000,0.000000,
300062103,64.423269,25.510440,2,0.854309,-0.109985,-0.029480,0.507141,-2.186274,-1.078710,24.728511,-4.129498,1.498817,14.652968,64.598970,82.022777,15.665536,0.000000,0.000000,
300071427,64.626455,25.510440,2,0.847290,-0.108826,-0.029480,0.519043,-2.360021,-0.650483,21.697494,-4.048834,0.952110,11.637260,65.369222,82.133033,13.023516,0.000000,0.000000,
300081337,65.732137,25.505904,2,0.840088,-0.107971,-0.029297,0.530823,-2.272091,-0.586217,19.410305,-3.646332,0.631769,9.393025,66.251462,82.268753,10.642392,0.000000,0.000000,
300092386,66.451162,25.510440,2,0.832703,-0.107544,-0.028748,0.542419,-2.230940,0.030255,15.288862,-3.457799,0.239596,5.254695,67.197982,82.352359,7.108770,0.000000,0.000000,
300101881,67.465780,25.510440,2,0.825256,-0.107483,-0.027832,0.553772,-2.008343,0.008678,13.557200,-3.019728,0.136266,3.566977,68.030123,82.416690,4.785819,0.000000,0.000000,
300111447,68.276723,25.510440,2,0.817627,-0.107849,-0.026489,0.564941,-2.149493,0.321872,9.650589,-2.662059,-0.476489,-0.286406,68.864497,82.442360,1.459106,0.000000,0.000000,
300122558,68.682211,25.510440,2,0.809875,-0.108398,-0.024658,0.575989,-1.804962,0.575162,7.992454,-2.457265,-0.339553,-1.971288,69.746084,82.400971,-0.790783,0.000000,0.000000,
300132007,69.586050,25.505904,2,0.801941,-0.109253,-0.022400,0.586914,-1.659972,0.237648,6.052386,-1.727132,-0.607502,-3.795091,70.494371,82.344916,-2.761216,0.000000,0.000000,
300141771,69.807485,25.514976,2,0.793823,-0.110352,-0.019836,0.597717,-1.242522,0.723400,4.088709,-1.705920,-0.381038,-5.839142,71.169268,82.207355,-4.779934,0.000000,0.000000,
300152507,70.526815,25.519512,2,0.785583,-0.111572,-0.016907,0.608337,-1.029912,0.480510,2.935919,-1.201422,-0.420910,-6.920192,71.930940,82.058894,-6.183666,0.000000,0.000000,
300161960,71.412160,25.505904,2,0.777222,-0.113037,-0.013733,0.618835,-0.534546,0.736135,1.570149,-1.085120,-0.115283,-8.353142,72.608927,81.917949,-7.606560,0.000000,0.000000,
300171678,71.523153,25.510440,2,0.768799,-0.114563,-0.010498,0.629028,-0.200136,1.032601,0.341081,-1.087980,0.044810,-9.635639,73.201068,81.697636,-8.937374,0.000000,0.000000,
300182712,72.445943,25.514976,2,0.760315,-0.116211,-0.007141,0.639038,-0.028333,0.689739,-0.144168,-0.650891,0.045986,-10.068597,73.960334,81.499452,-9.679311,0.000000,0.000000,
300192125,73.146230,25.510440,2,0.751709,-0.117859,-0.003723,0.648804,0.364392,0.799125,-1.633791,-0.458419,0.173565,-11.588647,74.574271,81.293292,-10.931589,0.000000,0.000000,
300201997,74.548025,25.501369,2,0.743164,-0.119385,-0.000183,0.658325,0.620618,0.617003,-2.153386,-0.181605,0.282681,-12.096903,75.371242,81.170837,-11.695882,0.000000,0.000000,
300212729,74.474355,25.514976,2,0.734680,-0.120850,0.003235,0.667542,1.308172,0.371947,-2.576108,0.188506,0.833732,-12.586137,76.073506,80.931685,-12.279776,0.000000,0.000000,
300222255,75.563436,25.501369,2,0.726257,-0.122192,0.006409,0.676453,1.812464,0.559370,-2.884564,0.057832,1.269607,-13.011501,76.748229,80.747369,-12.759694,0.000000,0.000000,
300233093,75.267690,25.505904,2,0.717957,-0.123413,0.009521,0.684998,0.889427,0.495665,-3.189379,0.070207,0.280128,-13.134235,77.345032,80.432536,-13.005350,0.000000,0.000000,
300242548,76.393697,25.510440,2,0.709717,-0.124451,0.012329,0.693298,1.845053,0.363757,-3.959872,0.330232,1.041768,-14.049985,77.926492,80.186764,-13.690498,0.000000,0.000000,
300252231,77.095296,25.505904,2,0.701538,-0.125000,0.014343,0.701416,1.448485,0.451527,-3.921735,0.187024,0.641102,-13.949718,78.546551,79.954640,-13.860516,0.000000,0.000000,
300263234,77.888296,25.496833,2,0.693542,-0.125183,0.015808,0.709290,0.937295,0.680445,-4.778249,0.067534,-0.049347,-14.716661,79.301991,79.716760,-14.422037,0.000000,0.000000,
300272375,78.515798,25.505904,2,0.685730,-0.125061,0.016663,0.716858,1.144256,1.191655,-5.187709,-0.390429,0.035057,-15.230516,79.882654,79.484260,-14.952297,0.000000,0.000000,
300282188,79.125173,25.505904,2,0.677856,-0.124573,0.016968,0.724365,0.833947,0.943591,-5.162260,-0.155132,-0.262796,-15.103300,80.520032,79.248255,-15.051338,0.000000,0.000000,
300292941,80.140493,25.505904,2,0.670105,-0.123779,0.016724,0.731689,0.827338,1.355883,-5.687970,-0.484375,-0.417533,-15.674443,81.300145,79.036067,-15.460015,0.000000,0.000000,
300302547,80.048605,25.510440,2,0.662292,-0.122742,0.016113,0.738953,0.345882,1.942926,-5.975153,-0.984504,-1.020842,-15.930734,81.824072,78.736140,-15.768750,0.000000,0.000000,
300312336,81.451345,25.501369,2,0.654358,-0.121521,0.015320,0.746216,-0.258709,1.446317,-5.698382,-0.463680,-1.499159,-15.474800,82.524274,78.541356,-15.575959,0.000000,0.000000,
300323398,81.267049,25.510440,2,0.646240,-0.120056,0.014221,0.753479,-0.572460,1.623288,-6.474984,-0.453971,-1.969812,-16.194268,83.156457,78.217007,-15.981493,0.000000,0.000000,
300332756,82.282064,25.510440,2,0.637939,-0.118347,0.013062,0.760864,-0.427867,1.999692,-5.889290,-0.911680,-1.798623,-15.696008,83.723834,77.967037,-15.794257,0.000000,0.000000,
300342589,81.968465,25.505904,2,0.629456,-0.116516,0.012146,0.768127,-0.992642,1.460732,-6.081431,-0.236878,-2.268027,-15.706272,84.160892,77.608512,-15.736557,0.000000,0.000000,
300353627,82.190176,25.514976,2,0.620911,-0.114746,0.011536,0.775330,-0.977031,1.809369,-6.444909,-0.492403,-2.389214,-16.110800,84.647164,77.202543,-15.982019,0.000000,0.000000,
300362942,83.187124,25.505904,2,0.612244,-0.113159,0.011292,0.782471,-0.890070,1.721726,-5.937643,-0.479366,-2.209093,-15.624931,85.091958,76.884765,-15.747823,0.000000,0.000000,
300372621,83.593710,25.505904,2,0.603516,-0.111633,0.011292,0.789429,-1.299622,1.839000,-6.481712,-0.377174,-2.721708,-16.082752,85.554720,76.555023,-15.967498,0.000000,0.000000,
300383691,83.907888,25.510440,2,0.594604,-0.110229,0.011719,0.796326,-1.425411,1.793148,-6.269528,-0.302914,-2.815930,-15.846216,86.092605,76.189448,-15.887959,0.000000,0.000000,
300393128,84.720113,25.510440,2,0.585449,-0.109009,0.012573,0.803223,-1.359774,1.830096,-6.312937,-0.314454,-2.783625,-15.904844,86.553632,75.877679,-15.899040,0.000000,0.000000,
300402864,85.513692,25.501369,2,0.576050,-0.108032,0.013794,0.810120,-1.161791,1.720299,-6.591913,-0.196609,-2.627725,-16.191513,87.096793,75.599187,-16.090868,0.000000,0.000000,
300413611,86.234609,25.505904,2,0.566406,-0.107361,0.015442,0.816956,-1.017748,1.052628,-6.047063,0.323156,-2.202164,-15.609934,87.746823,75.331634,-15.775442,0.000000,0.000000,
300423061,86.031515,25.505904,2,0.556702,-0.106934,0.017517,0.823608,-0.869682,1.122678,-6.576155,0.313466,-2.198249,-16.151178,88.136540,74.977877,-16.021883,0.000000,0.000000,
300432666,87.269888,25.514976,2,0.546875,-0.106689,0.020020,0.830139,-0.528218,1.263244,-6.150799,0.010228,-1.903586,-15.806307,88.693690,74.725775,-15.880497,0.000000,0.000000,
300443700,87.361837,25.510440,2,0.536804,-0.106506,0.022705,0.836609,-0.200874,1.111133,-6.398761,0.071703,-1.625372,-16.091778,89.267708,74.395315,-16.019075,0.000000,0.000000,
300453201,87.971181,25.510440,2,0.526489,-0.106567,0.025574,0.843079,-0.581179,1.039680,-6.563871,0.329111,-1.996255,-16.161726,89.730831,74.089708,-16.112642,0.000000,0.000000,
300464143,88.063131,25.505904,2,0.515991,-0.106750,0.028564,0.849426,-0.181749,0.591193,-6.110023,0.493210,-1.406598,-15.756728,90.228006,73.723934,-15.879216,0.000000,0.000000,
300473622,89.689352,25.505904,2,0.505371,-0.106995,0.031616,0.855652,0.035093,0.854201,-6.459651,0.227966,-1.436572,-16.154269,90.825120,73.507240,-16.059617,0.000000,0.000000,
300483181,89.800527,25.510440,2,0.494690,-0.107239,0.034546,0.861755,-0.032170,0.651395,-6.048539,0.374834,-1.361997,-15.715445,91.335146,73.237912,-15.833890,0.000000,0.000000,
300493958,90.004232,25.510440,2,0.483887,-0.107483,0.037476,0.867676,0.214154,0.248765,-5.999161,0.585754,-0.970015,-15.704123,91.874171,72.915297,-15.748785,0.000000,0.000000,
300503377,91.204580,25.501369,2,0.473145,-0.107605,0.040222,0.873474,0.260159,0.800816,-6.271919,0.135645,-1.310664,-15.988007,92.434781,72.686339,-15.905686,0.000000,0.000000,
300513139,91.833395,25.510440,2,0.462341,-0.107788,0.042786,0.879089,0.470198,0.323858,-5.989709,0.384718,-0.853050,-15.746369,93.030985,72.463215,-15.801198,0.000000,0.000000,
300524168,91.925405,25.505904,2,0.451538,-0.107849,0.045166,0.884521,0.426186,0.172012,-6.104171,0.534931,-0.845575,-15.837051,93.622077,72.161506,-15.824717,0.000000,0.000000,
300533628,92.535024,25.505904,2,0.440735,-0.107849,0.047241,0.889893,0.229610,0.711350,-6.332805,0.257344,-1.383554,-16.020458,94.100280,71.882453,-15.953102,0.000000,0.000000,
300543411,93.053213,25.510440,2,0.429932,-0.107849,0.049072,0.895020,0.503939,-0.024748,-5.676144,0.580268,-0.627198,-15.438870,94.606677,71.610248,-15.615838,0.000000,0.000000,
300554435,92.849996,25.510440,2,0.419128,-0.107666,0.050598,0.900085,0.414200,0.106250,-6.236126,0.600410,-0.899806,-15.953613,95.065941,71.232130,-15.837381,0.000000,0.000000,
300563762,93.959219,25.505904,3,0.408325,-0.107483,0.051819,0.905029,-0.259018,0.652869,-5.838735,0.559510,-1.687057,-15.405939,95.522260,70.958668,-15.554417,0.000000,0.000000,
300573632,94.883474,25.510440,3,0.397522,-0.107239,0.052795,0.909790,0.372504,0.298493,-5.818984,0.423645,-0.998944,-15.536931,96.102223,70.731475,-15.542951,0.020000,0.020000,
300584574,95.270773,25.501369,3,0.386658,-0.106873,0.053406,0.914429,-0.053167,0.709250,-6.259455,0.486388,-1.663964,-15.857114,96.719399,70.462240,-15.749004,0.040000,0.040000,
300593969,95.401266,25.514976,3,0.375732,-0.106445,0.053711,0.919006,-0.208933,1.121590,-5.927684,0.277715,-2.003932,-15.486727,97.133688,70.162241,-15.576991,0.060000,0.060000,
300603647,95.696554,25.510440,3,0.364746,-0.106018,0.053772,0.923462,-0.019339,0.725218,-6.015565,0.457279,-1.609108,-15.621202,97.542837,69.844894,-15.605994,0.080000,0.080000,
300614716,97.008840,25.505904,3,0.353760,-0.105591,0.053711,0.927795,-0.175848,1.235243,-6.163740,0.276153,-2.113115,-15.722974,98.214929,69.609568,-15.682720,0.102000,0.102000,
300624065,96.621481,25.514976,3,0.342773,-0.105225,0.053528,0.931946,-0.334986,1.321527,-5.755621,0.308640,-2.205263,-15.283322,98.566445,69.280065,-15.420775,0.120000,0.120000,
300633834,97.618795,25.505904,3,0.331787,-0.104858,0.053406,0.935974,0.009532,1.561077,-6.065949,-0.022495,-2.238021,-15.653622,99.065011,69.017731,-15.573496,0.140000,0.140000,
300644623,97.841879,25.514976,3,0.320618,-0.104553,0.053223,0.939880,-0.270290,1.597815,-5.759966,0.161971,-2.385464,-15.285845,99.579620,68.712140,-15.384839,0.162000,0.162000,
300654133,98.931844,25.501369,3,0.309326,-0.104370,0.053223,0.943726,-0.270115,1.634407,-5.969438,0.220820,-2.455250,-15.483077,100.110996,68.489297,-15.449273,0.180000,0.180000,
300663840,99.450368,25.505904,3,0.297668,-0.104126,0.053467,0.947449,-0.262140,1.997532,-5.911329,0.040472,-2.749569,-15.407805,100.651388,68.263542,-15.422078,0.200000,0.200000,
300674839,100.171743,25.510440,3,0.286011,-0.103821,0.053894,0.951050,-0.150427,1.506652,-5.478996,0.203474,-2.224408,-15.026169,101.311466,68.043088,-15.162415,0.222000,0.222000,
300684199,100.689809,25.514976,3,0.274353,-0.103455,0.054626,0.954468,-0.304363,1.978176,-6.223614,0.232293,-2.830765,-15.688255,101.831154,67.823360,-15.507300,0.242000,0.242000,
300695219,101.688528,25.505904,3,0.262634,-0.102966,0.055603,0.957764,-0.262770,1.362019,-5.612663,0.460352,-2.198765,-15.126475,102.550936,67.640071,-15.257529,0.262000,0.262000,
300704487,101.799337,25.510440,3,0.250793,-0.102356,0.056885,0.960938,-0.017005,1.174247,-6.052989,0.454881,-2.009901,-15.611720,103.036279,67.407025,-15.489836,0.282000,0.282000,
300714240,102.002737,25.510440,3,0.239075,-0.101685,0.058411,0.963867,-0.083304,1.564579,-6.369526,0.403940,-2.447496,-15.873600,103.499373,67.132990,-15.741539,0.300000,0.300000,
300724992,102.410085,25.510440,3,0.227356,-0.100830,0.060181,0.966675,-0.136372,1.200287,-6.013995,0.583737,-2.101501,-15.533673,104.016239,66.840869,-15.605210,0.322000,0.322000,
300734537,103.205007,25.501369,3,0.215820,-0.099915,0.062073,0.969299,-0.294541,1.222133,-6.593320,0.833341,-2.302661,-16.052016,104.501495,66.593072,-15.898259,0.342000,0.342000,
300744342,104.149892,25.514976,3,0.204285,-0.098999,0.064148,0.971802,0.114276,1.283123,-6.329483,0.424030,-2.173091,-15.871919,105.087835,66.396945,-15.880985,0.362000,0.362000,
300755411,104.445425,25.510440,3,0.192688,-0.098022,0.066223,0.974121,-0.374089,1.251421,-6.633849,0.951115,-2.394721,-16.056457,105.701425,66.145574,-15.996074,0.382000,0.382000,
300764686,104.740987,25.505904,3,0.181091,-0.096985,0.068420,0.976257,0.138593,1.396631,-7.263298,0.554247,-2.475383,-16.756540,106.134192,65.877368,-16.494844,0.402000,0.402000,
300774551,105.259267,25.510440,3,0.169495,-0.096008,0.070679,0.978271,-0.600317,0.797103,-6.543378,1.354924,-2.059531,-15.942668,106.619473,65.619339,-16.132693,0.422000,0.422000,
300785562,105.574087,25.514976,3,0.157837,-0.094849,0.072876,0.980225,-0.341084,0.706692,-7.119804,1.254540,-2.003746,-16.563073,107.145112,65.317115,-16.414970,0.442000,0.442000,
300794992,106.481191,25.510440,3,0.145996,-0.093567,0.075134,0.981995,-0.478165,1.080856,-7.168500,1.287645,-2.416512,-16.533695,107.635892,65.083487,-16.492841,0.462000,0.462000,
300804555,106.795522,25.514976,3,0.134216,-0.092285,0.077271,0.983643,0.095730,0.671802,-6.897564,0.832415,-1.842908,-16.434077,108.100168,64.829373,-16.454303,0.482000,0.482000,
300815659,107.498678,25.510440,3,0.122559,-0.091003,0.079407,0.985107,-0.047587,1.080628,-7.361896,0.952588,-2.368507,-16.796286,108.706302,64.574248,-16.678602,0.504000,0.504000,
300825113,108.109762,25.510440,3,0.110840,-0.089783,0.081299,0.986450,-0.278289,0.936729,-7.385669,1.223899,-2.296319,-16.779242,109.204246,64.345897,-16.744611,0.522000,0.522000,
300834852,108.201894,25.505904,3,0.099121,-0.088501,0.082886,0.987671,-0.345586,0.785990,-7.254122,1.320139,-2.140224,-16.656864,109.642411,64.068127,-16.687065,0.542000,0.542000,
300845609,108.720876,25.510440,3,0.087219,-0.087219,0.084351,0.988770,-0.394472,0.762284,-7.742876,1.464429,-2.217333,-17.122397,110.157953,63.778436,-16.972589,0.562000,0.562000,
300855047,108.812490,25.505904,3,0.075256,-0.085938,0.085571,0.989746,-0.281822,1.007809,-7.538978,1.297410,-2.397324,-16.905158,110.507086,63.462440,-16.928369,0.582000,0.582000,
300864756,108.720876,25.510440,3,0.063354,-0.084717,0.086670,0.990601,-0.854651,1.161243,-7.768986,1.892381,-2.653901,-16.997287,110.788012,63.092313,-16.973577,0.602000,0.602000,
300875742,109.535055,25.510440,3,0.051636,-0.083557,0.087463,0.991333,-0.882231,1.226174,-7.587203,1.911037,-2.663789,-16.804740,111.245441,62.764518,-16.862847,0.624000,0.624000,
300885271,110.349294,25.510440,3,0.039917,-0.082520,0.088074,0.991882,0.127367,0.645569,-7.554456,1.001095,-2.003676,-17.051086,111.674836,62.497646,-16.986311,0.644000,0.644000,
300896223,110.553884,25.510440,3,0.028198,-0.081665,0.088562,0.992310,-0.552741,1.689107,-8.122321,1.708753,-3.156174,-17.306962,112.148193,62.179188,-17.196621,0.664000,0.664000,
300905472,111.367696,25.510440,3,0.016541,-0.080872,0.088928,0.992615,0.468508,1.534807,-7.977805,0.725229,-2.935263,-17.359076,112.576275,61.927197,-17.303174,0.684000,0.684000,
300915201,111.755605,25.501369,3,0.005005,-0.080139,0.089172,0.992798,-0.058552,1.377689,-8.251470,1.338071,-2.830534,-17.561168,113.024250,61.661951,-17.472387,0.702000,0.702000,
300926006,112.701772,25.514976,3,-0.006592,-0.079468,0.089355,0.992798,0.808096,1.440256,-8.702573,0.588849,-2.973070,-18.122881,113.629018,61.429487,-17.899027,0.724000,0.724000,
300935312,112.793935,25.510440,3,-0.018372,-0.078796,0.089539,0.992676,0.094819,1.404211,-8.256048,1.257322,-2.829522,-17.580611,114.043509,61.168994,-17.690192,0.742000,0.742000,
300944906,112.589803,25.510440,3,-0.030029,-0.078003,0.089783,0.992432,0.151184,1.481776,-8.548437,1.292256,-2.951187,-17.854402,114.357431,60.831357,-17.797898,0.762000,0.762000,
300955900,113.313161,25.514976,3,-0.041626,-0.077087,0.090027,0.992065,0.484258,0.961378,-8.451274,0.951793,-2.448334,-17.910116,114.829573,60.515850,-17.871502,0.784000,0.784000,
300965492,113.608450,25.510440,3,-0.053223,-0.076111,0.090271,0.991577,-0.354894,1.151243,-8.621224,1.844415,-2.560837,-17.916996,115.180464,60.202398,-17.901346,0.804000,0.804000,
300975301,114.830831,25.510440,3,-0.065063,-0.074890,0.090637,0.990906,1.130341,1.644987,-9.275058,0.567679,-3.346798,-18.661480,115.704591,59.979173,-18.399896,0.822000,0.822000,
300986010,114.923025,25.505904,3,-0.076843,-0.073608,0.091064,0.990173,-0.156624,0.991797,-8.650330,1.674878,-2.407257,-17.999451,116.199500,59.696876,-18.137259,0.844000,0.844000,
300995564,115.035024,25.510440,3,-0.088684,-0.072266,0.091614,0.989197,0.530407,1.273301,-9.342969,1.179247,-2.906537,-18.705010,116.550825,59.382968,-18.509635,0.864000,0.864000,
301005460,115.941885,25.505904,3,-0.100586,-0.070801,0.092163,0.988098,-0.192818,1.271424,-9.066239,1.860897,-2.710633,-18.352016,117.023562,59.131464,-18.406260,0.884000,0.884000,
301016525,116.960836,25.505904,3,-0.112610,-0.069153,0.092834,0.986877,0.100263,1.029353,-9.129248,1.560492,-2.547416,-18.492139,117.664964,58.919700,-18.462586,0.904000,0.904000,
301026009,117.072317,25.510440,3,-0.124451,-0.067383,0.093506,0.985535,-1.029099,1.817487,-9.442826,2.888271,-3.045697,-18.513646,118.111858,58.674872,-18.496077,0.924000,0.924000,
301035602,116.849355,25.501369,3,-0.136047,-0.065430,0.094177,0.984070,0.241571,1.069886,-9.056169,1.441559,-2.596522,-18.423102,118.437453,58.352590,-18.448220,0.944000,0.944000,
301046681,117.368246,25.505904,3,-0.147400,-0.063354,0.094849,0.982483,-0.939700,1.955832,-9.681808,2.916581,-3.174375,-18.742531,118.882471,58.022868,-18.641253,0.966000,0.966000,
301056103,117.775655,25.505904,3,-0.158813,-0.061035,0.095398,0.980774,-0.867501,2.482120,-10.257545,3.107838,-3.753715,-19.204229,119.220884,57.712602,-19.010497,0.984000,0.984000,
301066966,118.498861,25.510440,3,-0.169800,-0.058838,0.095886,0.979065,-0.775028,1.642917,-9.225793,2.617545,-2.804469,-18.383840,119.711457,57.429624,-18.599495,1.000000,1.000000,
301076196,119.018362,25.514976,3,-0.180603,-0.056702,0.096313,0.977173,-0.063244,1.839351,-10.442532,2.215588,-3.417835,-19.596143,120.110782,57.167399,-19.253168,1.000000,1.000000,
301085924,119.314321,25.510440,3,-0.191284,-0.054810,0.096802,0.975220,-1.285423,2.519580,-9.821704,3.517440,-3.447110,-18.761213,120.516916,56.893524,-18.930513,1.000000,1.000000,
301096664,120.333089,25.510440,3,-0.201843,-0.052856,0.097290,0.973145,-0.935314,2.245963,-10.266324,3.177293,-3.371343,-19.280981,121.092398,56.665599,-19.160375,1.000000,1.000000,
301106320,120.629110,25.505904,3,-0.212219,-0.051147,0.097900,0.970947,-0.731465,1.821560,-10.499536,2.881120,-3.084424,-19.612781,121.551840,56.422485,-19.457096,1.000000,1.000000,
301116028,119.925558,25.510440,3,-0.222168,-0.049622,0.098694,0.968750,-1.343678,1.773168,-10.240308,3.386005,-2.703202,-19.341049,121.794182,56.048063,-19.380991,1.000000,1.000000,
301127129,120.833395,25.505904,3,-0.232117,-0.048279,0.099487,0.966370,-0.136948,1.357892,-10.647047,2.206279,-2.933193,-19.887392,122.235140,55.717886,-19.713127,1.000000,1.000000,
301136304,121.556264,25.510440,3,-0.242126,-0.047119,0.100403,0.963867,-0.299717,1.444489,-10.002986,2.322366,-2.809913,-19.232513,122.618380,55.462571,-19.397911,1.000000,1.000000,
301146151,122.056112,25.505904,3,-0.252075,-0.046082,0.101318,0.961304,-0.927927,1.945868,-10.398725,3.193625,-2.986678,-19.483030,123.058306,55.206415,-19.453740,1.000000,1.000000,
301156940,121.668844,25.514976,3,-0.261902,-0.045227,0.102417,0.958557,-0.877628,2.434095,-10.607258,3.449325,-3.435968,-19.580730,123.392546,54.836693,-19.537035,1.000000,1.000000,
301166451,122.464254,25.505904,3,-0.271790,-0.044556,0.103577,0.955750,-0.962439,2.909815,-10.173734,3.746806,-3.681195,-19.038135,123.739373,54.548263,-19.209826,1.000000,1.000000,
301176181,123.464040,25.496833,3,-0.281494,-0.044067,0.104797,0.952820,-0.254945,2.250548,-10.296875,2.876800,-3.504426,-19.322134,124.217661,54.328722,-19.283486,1.000000,1.000000,
301187272,123.503652,25.514976,3,-0.290894,-0.043762,0.106018,0.949890,-0.703125,2.138273,-10.251114,3.229558,-3.139098,-19.278371,124.685291,54.033543,-19.280134,1.000000,1.000000,
301196660,123.687673,25.505904,3,-0.300720,-0.043457,0.107300,0.946655,0.036952,1.679022,-9.772144,2.352356,-3.091710,-18.926808,125.004829,53.739940,-19.048403,1.000000,1.000000,
301206525,124.207418,25.510440,3,-0.310730,-0.043152,0.108704,0.943298,-0.432386,1.329181,-10.237077,2.644795,-2.606643,-19.440290,125.384696,53.456718,-19.305433,1.000000,1.000000,
301217574,124.391470,25.501369,3,-0.321289,-0.042847,0.110046,0.939575,-0.057763,0.867290,-9.359055,1.985561,-2.311390,-18.695894,125.788140,53.136313,-18.905659,1.000000,1.000000,
301227054,125.226675,25.510440,3,-0.332031,-0.042480,0.111450,0.935669,-0.054207,0.992351,-8.995996,2.033212,-2.334936,-18.303514,126.185864,52.897579,-18.510733,1.000000,1.000000,
301237742,124.634939,25.519512,3,-0.342712,-0.042114,0.112732,0.931702,0.253383,1.042835,-9.683197,1.974156,-2.690808,-18.957243,126.459514,52.516647,-18.803591,0.980000,0.980000,
301247060,125.318960,25.505904,3,-0.353455,-0.041748,0.113953,0.927551,0.351340,0.186075,-8.915468,1.266561,-1.990683,-18.405436,126.734393,52.212562,-18.542459,0.960000,0.960000,
301256638,126.042684,25.510440,3,-0.364502,-0.041199,0.115234,0.923157,-0.860103,0.650524,-9.102530,2.511757,-1.542016,-18.482326,127.104147,51.956307,-18.503022,0.940000,0.940000,
301267654,125.950399,25.514976,3,-0.375977,-0.040466,0.116455,0.918396,0.483684,1.060675,-8.951016,1.821993,-2.722415,-18.210113,127.459330,51.624468,-18.310916,0.918000,0.918000,
301277072,126.746633,25.505904,3,-0.387207,-0.039734,0.117554,0.913574,-0.583504,0.831359,-9.102200,2.480900,-1.821088,-18.428608,127.811202,51.368256,-18.388110,0.900000,0.900000,
301286799,127.266531,25.510440,3,-0.398193,-0.038879,0.118591,0.908752,0.786078,0.704680,-9.643611,1.564301,-2.824599,-18.954411,128.207974,51.121577,-18.759531,0.880000,0.880000,
301297623,127.674856,25.510440,3,-0.408813,-0.037903,0.119568,0.903931,-0.681156,1.152674,-8.901363,2.770071,-1.879124,-18.153983,128.660435,50.864183,-18.362373,0.858000,0.858000,
301307194,128.286611,25.510440,3,-0.419373,-0.036804,0.120483,0.899048,0.338814,0.860100,-9.197478,1.963474,-2.504673,-18.480440,129.076382,50.644043,-18.439811,0.840000,0.840000,
301316824,128.693960,25.510440,3,-0.429932,-0.035583,0.121338,0.893982,0.144173,1.075452,-8.435860,2.143153,-2.341416,-17.695468,129.491703,50.429914,-17.951621,0.820000,0.820000,
301327913,128.898916,25.510440,3,-0.440125,-0.034180,0.122131,0.888916,-0.469024,0.919719,-8.167679,2.370659,-1.701772,-17.503504,129.938836,50.168217,-17.657717,0.798000,0.798000,
301337421,130.326559,25.510440,3,-0.450012,-0.032654,0.122681,0.883972,0.277231,1.246859,-8.530824,2.252064,-2.534798,-17.738672,130.487671,50.044540,-17.710811,0.778000,0.778000,
301347160,129.622366,25.514976,3,-0.459595,-0.030884,0.123169,0.879028,-0.077696,1.100133,-8.041301,2.269185,-2.058848,-17.322471,130.812226,49.776594,-17.456115,0.760000,0.760000,
301357886,130.938467,25.510440,3,-0.469543,-0.028992,0.123596,0.873718,0.331222,0.948702,-7.907224,1.908586,-2.271808,-17.204749,131.368795,49.606376,-17.291251,0.738000,0.738000,
301367264,130.735006,25.510440,3,-0.479614,-0.026917,0.123901,0.868286,-0.255195,0.737869,-7.821632,2.040857,-1.649789,-17.214809,131.714544,49.371662,-17.241118,0.720000,0.720000,
301376944,131.366750,25.519512,3,-0.489685,-0.024719,0.124084,0.862671,0.023793,0.819250,-7.439532,1.899687,-1.839831,-16.806381,132.126594,49.169305,-16.955989,0.700000,0.700000,
301387953,131.755422,25.510440,3,-0.499634,-0.022400,0.124207,0.856995,-0.283795,0.758145,-7.331396,1.983409,-1.511438,-16.744589,132.597385,48.942758,-16.817340,0.678000,0.678000,
301397532,132.663259,25.505904,3,-0.509521,-0.020081,0.124207,0.851196,0.271944,1.235201,-6.848901,2.035580,-2.107046,-16.119601,133.077841,48.796203,-16.359714,0.658000,0.658000,
301408463,132.663259,25.505904,3,-0.519226,-0.017761,0.124146,0.845398,-0.380828,1.645013,-7.049873,2.739704,-1.723317,-16.286772,133.532583,48.570649,-16.311875,0.638000,0.638000,
301417900,133.183981,25.510440,3,-0.528687,-0.015381,0.124146,0.839539,0.247059,1.574138,-7.053671,2.390582,-2.224780,-16.249093,133.924901,48.376731,-16.270700,0.618000,0.618000,
301427467,133.092153,25.514976,3,-0.538147,-0.013000,0.124146,0.833557,-0.724808,1.687022,-6.389470,2.807727,-1.247762,-15.701983,134.231102,48.130918,-15.897700,0.598000,0.598000,
301438569,133.592031,25.510440,3,-0.547607,-0.010620,0.124207,0.827393,0.245379,1.309806,-6.785895,2.135446,-2.027409,-16.064019,134.644747,47.879919,-16.006786,0.578000,0.578000,
301447952,134.204122,25.510440,3,-0.557251,-0.008301,0.124329,0.820923,-0.471653,1.937311,-6.502688,2.936819,-1.514209,-15.749685,135.010770,47.681038,-15.838163,0.558000,0.558000,
301457708,134.408163,25.510440,3,-0.566895,-0.005981,0.124390,0.814331,-0.029659,1.182617,-5.906046,1.991106,-1.522418,-15.281744,135.362415,47.462938,-15.473228,0.538000,0.538000,
301468687,134.204122,25.510440,3,-0.576294,-0.003845,0.124573,0.807678,-0.248805,1.338036,-6.397254,2.289789,-1.443207,-15.759836,135.665582,47.158035,-15.661210,0.516000,0.516000,
301478135,135.112691,25.505904,3,-0.585754,-0.001892,0.124756,0.800781,-0.333814,1.581022,-5.964009,2.476639,-1.315436,-15.311283,136.006881,46.949336,-15.431706,0.498000,0.498000,
301487754,135.336568,25.514976,3,-0.595276,0.000000,0.125061,0.793762,-0.200835,1.468434,-5.789585,2.310415,-1.350844,-15.141050,136.332303,46.726937,-15.241077,0.478000,0.478000,
301498860,135.633016,25.510440,3,-0.604431,0.001648,0.125427,0.786682,-0.196788,1.437172,-5.885341,2.301029,-1.329997,-15.247071,136.719334,46.478117,-15.245011,0.456000,0.456000,
301508115,136.745779,25.505904,3,-0.613281,0.003113,0.125916,0.779724,-0.027978,1.174381,-5.335266,1.935564,-1.297823,-14.743699,137.153835,46.344966,-14.916216,0.438000,0.438000,
301517962,136.857473,25.510440,3,-0.621948,0.004517,0.126404,0.772766,-0.183947,0.944619,-5.333385,1.752261,-1.078900,-14.817364,137.553998,46.165223,-14.851384,0.418000,0.418000,
301528728,137.694234,25.519512,3,-0.630554,0.005798,0.126953,0.765625,-0.337861,1.294116,-5.419086,2.141591,-0.996457,-14.853989,138.076416,46.021270,-14.853092,0.396000,0.396000,
301538223,137.858144,25.501369,3,-0.639099,0.006958,0.127563,0.758423,-0.416277,0.963650,-4.859557,1.761672,-0.728481,-14.393278,138.471878,45.859539,-14.551515,0.378000,0.378000,
301547915,138.879781,25.501369,3,-0.647522,0.008118,0.128174,0.751160,-0.415352,1.255707,-5.227927,2.098638,-0.827110,-14.702228,138.992009,45.763618,-14.650362,0.358000,0.358000,
301558995,138.491384,25.510440,3,-0.655701,0.009094,0.128845,0.743896,0.005867,0.658953,-4.762071,1.383812,-1.053625,-14.278891,139.404447,45.548394,-14.406728,0.336000,0.336000,
301568328,139.104299,25.510440,3,-0.663696,0.010010,0.129578,0.736633,-0.272199,0.880248,-4.933476,1.671919,-0.817483,-14.462196,139.772693,45.378598,-14.443109,0.316000,0.316000,
301579367,138.900167,25.510440,3,-0.671631,0.010925,0.130249,0.729248,-0.278951,0.885712,-4.520981,1.624706,-0.711600,-14.067643,140.109320,45.123515,-14.196856,0.296000,0.296000,
301588533,140.125021,25.510440,3,-0.679504,0.011719,0.131042,0.721741,-0.331669,0.594606,-4.584395,1.356514,-0.642300,-14.185084,140.525269,44.995327,-14.189135,0.276000,0.276000,
301598254,139.808614,25.505904,3,-0.687256,0.012512,0.131775,0.714233,-0.362269,0.770434,-4.804985,1.569856,-0.649630,-14.379106,140.827825,44.773734,-14.313734,0.258000,0.258000,
301609002,140.738027,25.510440,3,-0.694885,0.013245,0.132568,0.706665,-0.190542,0.563567,-4.112167,1.247934,-0.657803,-13.706835,141.291471,44.615992,-13.915688,0.236000,0.236000,
301618526,140.645589,25.514976,3,-0.702454,0.014038,0.133301,0.699036,-0.363329,0.424698,-4.137254,1.120277,-0.495328,-13.793000,141.594812,44.410224,-13.835224,0.216000,0.216000,
301628101,140.738027,25.510440,3,-0.709900,0.014771,0.134033,0.691284,-0.172818,0.614190,-4.273931,1.329812,-0.689922,-13.849361,141.859043,44.179915,-13.844500,0.198000,0.198000,
301639130,141.667013,25.514976,3,-0.717224,0.015564,0.134644,0.683533,-0.286994,0.364773,-3.720598,0.995238,-0.464910,-13.385410,142.309551,44.010339,-13.543398,0.176000,0.176000,
301648570,142.055532,25.505904,3,-0.724426,0.016296,0.135193,0.675781,-0.017797,0.355754,-4.117192,1.064938,-0.807527,-13.714032,142.676812,43.851473,-13.655312,0.156000,0.156000,
301658509,141.554739,25.510440,3,-0.731567,0.017090,0.135620,0.667969,-0.348233,0.415349,-3.802500,1.052413,-0.400260,-13.478900,142.901929,43.589515,-13.539614,0.138000,0.138000,
301669095,142.892721,25.514976,3,-0.738586,0.017944,0.135986,0.660095,0.007333,0.313043,-3.622541,0.948785,-0.713781,-13.235419,143.360914,43.448282,-13.340102,0.116000,0.116000,
301678708,142.780416,25.510440,3,-0.745544,0.018860,0.136230,0.652100,-0.012959,0.608469,-3.892567,1.294047,-0.699032,-13.456722,143.669236,43.252016,-13.416592,0.096000,0.096000,
301688601,142.892721,25.514976,3,-0.752441,0.019836,0.136475,0.644043,-0.309609,0.337350,-3.364098,0.893619,-0.339782,-13.060300,143.951126,43.034143,-13.182914,0.076000,0.076000,
301699671,143.096914,25.514976,3,-0.759216,0.020935,0.136536,0.635986,-0.094370,0.256252,-3.655560,0.896486,-0.615173,-13.304887,144.266675,42.789578,-13.262916,0.054000,0.054000,
301709168,144.618978,25.510440,3,-0.765869,0.022095,0.136536,0.627930,-0.040226,0.491104,-3.381061,1.091202,-0.553030,-12.996838,144.738487,42.707197,-13.088402,0.036000,0.036000,
301718915,144.322286,25.514976,3,-0.772400,0.023315,0.136475,0.619873,0.089588,0.036985,-3.060195,0.615633,-0.704026,-12.721442,145.076228,42.535460,-12.847726,0.016000,0.016000,
301729776,144.803365,25.501369,3,-0.778809,0.024658,0.136292,0.611755,-0.087315,0.362301,-3.418757,0.961433,-0.533254,-13.065524,145.486313,42.362507,-12.990574,0.000000,0.000000,
301739102,144.710378,25.505904,3,-0.785156,0.026001,0.136047,0.603577,0.124004,0.341785,-3.145083,0.938883,-0.669297,-12.756157,145.735491,42.153715,-12.836831,0.000000,0.000000,
301748784,145.119924,25.505904,3,-0.791443,0.027527,0.135742,0.595398,0.227865,0.118456,-3.010137,0.728151,-0.801909,-12.627503,146.027811,41.961211,-12.699542,0.000000,0.000000,
301759796,145.844503,25.510440,3,-0.797546,0.029053,0.135315,0.587158,0.057276,0.693105,-3.222453,1.259657,-0.500350,-12.811636,146.454778,41.799386,-12.773062,0.000000,0.000000,
301769281,146.141775,25.505904,3,-0.803589,0.030701,0.134888,0.578918,0.032959,0.205209,-2.807926,0.719577,-0.541495,-12.473663,146.792066,41.644973,-12.576697,0.000000,0.000000,
301780256,145.865408,25.519512,3,-0.809509,0.032349,0.134338,0.570679,0.137805,0.407390,-3.131100,0.998989,-0.629433,-12.737684,147.074731,41.399337,-12.682287,0.000000,0.000000,
301789534,146.978750,25.514976,3,-0.815308,0.034119,0.133728,0.562317,-0.054055,0.568767,-2.895831,1.038706,-0.340137,-12.547068,147.440318,41.271825,-12.593601,0.000000,0.000000,
301799243,147.480367,25.510440,3,-0.821106,0.035889,0.133057,0.553894,-0.080948,0.391939,-2.723418,0.825773,-0.337322,-12.407501,147.847947,41.155939,-12.471544,0.000000,0.000000,
301809878,147.162679,25.505904,3,-0.826782,0.037781,0.132446,0.545410,-0.022272,0.722394,-3.262981,1.234332,-0.363887,-12.887146,148.156574,40.941133,-12.744127,0.000000,0.000000,
301819356,147.868063,25.501369,3,-0.832336,0.039673,0.131836,0.536865,-0.044211,0.383252,-2.536499,0.781413,-0.334052,-12.222260,148.490062,40.792243,-12.401852,0.000000,0.000000,
301829015,147.888448,25.510440,3,-0.837830,0.041626,0.131226,0.528320,0.108078,0.504233,-2.981429,1.027828,-0.497961,-12.604661,148.770882,40.602047,-12.534871,0.000000,0.000000,
301840099,148.297079,25.510440,3,-0.843140,0.043518,0.130554,0.519775,-0.043948,0.784419,-2.815647,1.171556,-0.193725,-12.472631,149.131432,40.410184,-12.494051,0.000000,0.000000,
301849575,148.910574,25.510440,3,-0.848389,0.045349,0.129883,0.511169,0.132394,0.355792,-2.497622,0.814459,-0.469043,-12.147308,149.472461,40.269688,-12.266634,0.000000,0.000000,
301859364,149.207388,25.505904,3,-0.853516,0.047180,0.129272,0.502502,0.248536,0.819893,-3.068860,1.366629,-0.458467,-12.644447,149.816415,40.115645,-12.514431,0.000000,0.000000,
301870129,149.932272,25.510440,3,-0.858582,0.048950,0.128601,0.493835,-0.036876,0.677240,-2.698706,1.035460,-0.201555,-12.376214,150.269245,39.995540,-12.423779,0.000000,0.000000,
301879622,150.137136,25.510440,3,-0.863586,0.050720,0.127991,0.485046,0.082776,0.555951,-2.877219,1.020150,-0.389124,-12.524272,150.623611,39.861375,-12.489690,0.000000,0.000000,
301889531,151.047109,25.505904,3,-0.868469,0.052429,0.127319,0.476257,0.197723,0.938804,-2.930531,1.401255,-0.277863,-12.537022,151.097263,39.785439,-12.520732,0.000000,0.000000,
301900609,151.047109,25.505904,3,-0.873230,0.054077,0.126709,0.467407,0.139038,0.527770,-2.590681,0.961059,-0.369864,-12.242549,151.527872,39.643990,-12.338280,0.000000,0.000000,
301910098,151.250936,25.505904,3,-0.877869,0.055664,0.126160,0.458557,0.054402,0.665694,-2.885918,1.072983,-0.275384,-12.551532,151.851589,39.492643,-12.478147,0.000000,0.000000,
301919684,151.977010,25.510440,3,-0.882446,0.057251,0.125671,0.449646,0.178996,0.630299,-2.580176,1.055158,-0.315614,-12.229334,152.253097,39.389816,-12.314958,0.000000,0.000000,
301930779,152.088857,25.514976,3,-0.886963,0.058838,0.125244,0.440613,0.048845,0.434236,-2.542181,0.818155,-0.320780,-12.232389,152.658614,39.235393,-12.260804,0.000000,0.000000,
301940064,152.161001,25.501369,3,-0.891357,0.060242,0.124939,0.431580,0.108643,0.971312,-3.000669,1.343386,-0.123752,-12.651489,152.929131,39.060021,-12.517045,0.000000,0.000000,
301949935,152.907522,25.514976,3,-0.895630,0.061584,0.124695,0.422546,0.050778,0.382819,-2.390485,0.729024,-0.314323,-12.085318,153.310076,38.938239,-12.233889,0.000000,0.000000,
301960683,153.091024,25.505904,3,-0.899780,0.062866,0.124512,0.413513,0.099315,0.595288,-2.900409,1.010058,-0.322438,-12.565915,153.686819,38.778357,-12.451655,0.000000,0.000000,
301970181,153.203939,25.510440,3,-0.903809,0.064087,0.124329,0.404480,-0.002982,0.861642,-2.734242,1.115783,-0.017774,-12.444462,153.964131,38.604432,-12.446939,0.000000,0.000000,
301981068,153.315816,25.514976,3,-0.907715,0.065308,0.124146,0.395386,0.017704,0.339126,-2.533781,0.697627,-0.342732,-12.239959,154.262253,38.397141,-12.311190,0.000000,0.000000,
301990543,153.612783,25.510440,3,-0.911560,0.066406,0.124084,0.386292,0.093376,0.660881,-2.866460,1.034808,-0.232556,-12.541804,154.503814,38.202945,-12.462445,0.000000,0.000000,
302000131,154.134573,25.514976,3,-0.915344,0.067505,0.123962,0.377136,0.008265,0.423732,-2.373576,0.721853,-0.226955,-12.088967,154.800436,38.044815,-12.217494,0.000000,0.000000,
302011233,154.114156,25.505904,3,-0.919006,0.068604,0.123779,0.367981,0.074824,0.388967,-2.725577,0.805885,-0.366901,-12.410344,155.093501,37.829261,-12.343981,0.000000,0.000000,
302020365,154.522512,25.505904,3,-0.922546,0.069641,0.123657,0.358826,-0.016609,0.514461,-2.508531,0.783046,-0.169012,-12.235138,155.331504,37.651425,-12.272597,0.000000,0.000000,
302030214,155.657705,25.510440,3,-0.926025,0.070618,0.123474,0.349609,0.119680,0.230708,-2.260928,0.644793,-0.400904,-11.941472,155.762823,37.570867,-12.055421,0.000000,0.000000,
302040986,155.953695,25.505904,3,-0.929382,0.071655,0.123291,0.340393,0.079068,0.590438,-2.821055,0.952063,-0.217826,-12.510795,156.202532,37.457905,-12.354086,0.000000,0.000000,
302050524,155.749746,25.505904,3,-0.932678,0.072632,0.123108,0.331177,0.135127,0.294544,-2.345119,0.710363,-0.371100,-12.027074,156.474477,37.291161,-12.139611,0.000000,0.000000,
302060209,156.271658,25.510440,3,-0.935852,0.073669,0.122864,0.321960,0.145412,0.218000,-2.604306,0.717136,-0.483998,-12.272093,156.797097,37.149193,-12.226503,0.000000,0.000000,
302071070,156.271658,25.510440,3,-0.938904,0.074646,0.122681,0.312744,0.062021,0.546265,-2.738476,0.885598,-0.201195,-12.445457,157.101445,36.954593,-12.370110,0.000000,0.000000,
302080534,156.475607,25.510440,3,-0.941895,0.075684,0.122437,0.303589,-0.111976,0.210588,-2.255675,0.449534,-0.266545,-12.012648,157.333456,36.768929,-12.135665,0.000000,0.000000,
302090496,156.701009,25.519512,3,-0.944763,0.076721,0.122131,0.294373,0.078205,0.103048,-2.672333,0.617060,-0.544229,-12.343348,157.580733,36.573984,-12.271880,0.000000,0.000000,
302101241,157.202535,25.514976,3,-0.947510,0.077820,0.121887,0.285156,-0.022876,0.328621,-2.365175,0.611320,-0.237778,-12.095400,157.902200,36.400939,-12.156134,0.000000,0.000000,
302110756,158.204671,25.505904,3,-0.950195,0.078979,0.121582,0.276001,-0.145602,0.144165,-2.239795,0.379118,-0.296320,-11.998853,158.304672,36.321715,-12.052977,0.000000,0.000000,
302120545,158.296712,25.501369,3,-0.952759,0.080139,0.121216,0.266785,-0.014665,0.533004,-2.736187,0.785698,-0.141700,-12.474344,158.658119,36.198691,-12.329339,0.000000,0.000000,
302131653,159.022756,25.505904,3,-0.955200,0.081421,0.120789,0.257629,-0.015218,0.192106,-2.127845,0.488283,-0.298427,-11.864160,159.127801,36.108115,-12.024241,0.000000,0.000000,
302141178,159.022756,25.505904,3,-0.957581,0.082642,0.120361,0.248352,-0.090883,0.223500,-2.434009,0.492936,-0.301086,-12.173933,159.451490,35.979917,-12.122420,0.000000,0.000000,
302152066,159.339742,25.510440,3,-0.959900,0.083923,0.119873,0.239136,-0.175035,0.544508,-2.479097,0.577358,0.004337,-12.276084,159.821566,35.833503,-12.223203,0.000000,0.000000,
302161292,159.565725,25.519512,3,-0.962158,0.085266,0.119263,0.229797,-0.028264,0.098776,-2.041235,0.412302,-0.350240,-11.772210,160.103751,35.695339,-11.927412,0.000000,0.000000,
302171012,159.953359,25.510440,3,-0.964294,0.086609,0.118591,0.220520,-0.038734,0.330715,-2.610846,0.614606,-0.270097,-12.347099,160.421954,35.558156,-12.202672,0.000000,0.000000,
302181860,160.383413,25.519512,3,-0.966309,0.087952,0.117798,0.211182,-0.163083,0.344168,-2.177540,0.420076,-0.117279,-11.969052,160.799776,35.423846,-12.049448,0.000000,0.000000,
302191166,160.567556,25.510440,3,-0.968323,0.089294,0.117004,0.201843,-0.067655,0.134539,-2.200879,0.418120,-0.342167,-11.943396,161.085427,35.285944,-11.979893,0.000000,0.000000,
302200874,161.273336,25.505904,3,-0.970215,0.090637,0.116089,0.192444,0.001531,0.534136,-2.530109,0.692014,-0.078863,-12.294389,161.462559,35.187948,-12.186160,0.000000,0.000000,
302211990,160.977224,25.510440,3,-0.971985,0.091980,0.115112,0.183044,0.035173,0.069163,-2.216683,0.483354,-0.439805,-11.925424,161.762099,35.000374,-12.015154,0.000000,0.000000,
302221446,161.591451,25.510440,3,-0.973694,0.093384,0.114197,0.173645,-0.011470,0.458700,-2.543286,0.642178,-0.141457,-12.295078,162.060534,34.864277,-12.198748,0.000000,0.000000,
302231191,161.795522,25.510440,3,-0.975342,0.094727,0.113159,0.164185,0.162898,0.427366,-2.336948,0.743687,-0.178605,-12.051214,162.350109,34.716604,-12.101986,0.000000,0.000000,
302241962,162.317190,25.514976,3,-0.976868,0.096069,0.112122,0.154785,0.194518,0.296192,-2.424811,0.739424,-0.327704,-12.109983,162.717174,34.582433,-12.107231,0.000000,0.000000,
302251293,163.637472,25.510440,3,-0.978271,0.097412,0.111023,0.145325,0.124595,0.403648,-2.245915,0.668888,-0.156909,-11.977103,163.211688,34.576751,-12.021880,0.000000,0.000000,
302261060,163.729574,25.505904,3,-0.979614,0.098755,0.109924,0.135925,0.196692,0.177233,-1.923457,0.600445,-0.314096,-11.617412,163.645786,34.522079,-11.756600,0.000000,0.000000,
302271918,163.341268,25.514976,3,-0.980896,0.100037,0.108826,0.126587,0.275253,0.641959,-2.582634,0.918500,-0.034604,-12.310050,163.962862,34.354182,-12.119592,0.000000,0.000000,
302281507,163.637472,25.510440,3,-0.981995,0.101379,0.107788,0.117249,0.198814,0.277968,-1.971196,0.635369,-0.223927,-11.683137,164.230828,34.204840,-11.833336,0.000000,0.000000,
302291355,163.842092,25.510440,3,-0.983093,0.102661,0.106750,0.107910,0.222860,0.284117,-2.306288,0.715408,-0.292536,-12.002808,164.494315,34.042327,-11.944489,0.000000,0.000000,
302302133,164.865774,25.510440,3,-0.984009,0.103882,0.105774,0.098633,0.173205,0.546963,-2.386384,0.733166,-0.042381,-12.143017,164.930075,33.953726,-12.074696,0.000000,0.000000,
302311594,164.865774,25.510440,3,-0.984863,0.105164,0.104797,0.089355,0.138485,0.186871,-1.982338,0.548123,-0.297102,-11.698064,165.238762,33.835764,-11.827675,0.000000,0.000000,
302321479,165.162557,25.505904,3,-0.985657,0.106384,0.103882,0.080078,0.341135,0.282577,-2.406283,0.835988,-0.321793,-12.080720,165.558362,33.707674,-11.993640,0.000000,0.000000,
302332582,165.776510,25.505904,3,-0.986267,0.107666,0.103027,0.070862,0.271628,0.359084,-2.087201,0.714368,-0.167782,-11.809279,165.972761,33.601270,-11.872723,0.000000,0.000000,
302342016,165.684408,25.510440,3,-0.986877,0.108887,0.102173,0.061646,0.283502,0.192918,-1.965423,0.679859,-0.291199,-11.650739,166.235222,33.457998,-11.727132,0.000000,0.000000,
302352694,166.186391,25.505904,3,-0.987366,0.110168,0.101379,0.052429,0.340825,0.510473,-2.346617,0.842784,-0.075720,-12.071576,166.582636,33.323610,-11.953042,0.000000,0.000000,
302362111,166.391042,25.505904,3,-0.987732,0.111389,0.100647,0.043213,0.200753,0.261531,-2.009176,0.607214,-0.219893,-11.732869,166.860043,33.191023,-11.808638,0.000000,0.000000,
302371671,167.117117,25.510440,3,-0.988037,0.112610,0.099976,0.033997,0.226393,0.213037,-2.152979,0.650882,-0.301780,-11.858008,167.224927,33.106998,-11.841018,0.000000,0.000000,
302382855,167.230733,25.514976,3,-0.988220,0.113831,0.099365,0.024780,0.278448,0.567654,-2.389733,0.768047,-0.010277,-12.145476,167.595511,32.971984,-12.040702,0.000000,0.000000,
302392060,167.639608,25.514976,3,-0.988342,0.115051,0.098755,0.015625,0.210180,0.106965,-1.790029,0.562466,-0.318692,-11.487006,167.906818,32.871623,-11.677550,0.000000,0.000000,
302401878,167.731741,25.510440,3,-0.988342,0.116272,0.098267,0.006531,0.130658,0.321775,-2.199873,0.572715,-0.194767,-11.948343,168.196194,32.734416,-11.855155,0.000000,0.000000,
302412772,167.844808,25.514976,3,-0.988220,0.117493,0.097778,-0.002625,0.185828,0.318093,-1.974336,0.577971,-0.142965,-11.716629,168.486311,32.566885,-11.764302,0.000000,0.000000,
302422279,168.551626,25.510440,3,-0.988098,0.118713,0.097351,-0.011719,0.130911,0.006025,-1.780400,0.484200,-0.403204,-11.473121,168.807653,32.465442,-11.573325,0.000000,0.000000,
302432001,168.642721,25.505904,3,-0.987793,0.119934,0.096985,-0.020813,0.138187,0.484728,-2.302024,0.589248,-0.059315,-12.087448,169.091814,32.329104,-11.910523,0.000000,0.000000,
302443134,168.847982,25.505904,3,-0.987488,0.121155,0.096619,-0.029846,0.150640,0.254245,-1.870180,0.508270,-0.179599,-11.615477,169.405358,32.172000,-11.717013,0.000000,0.000000,
302452351,169.574728,25.510440,3,-0.987061,0.122375,0.096313,-0.038879,0.143624,0.131110,-2.017094,0.537434,-0.333135,-11.730862,169.733115,32.083491,-11.726095,0.000000,0.000000,
302462220,169.482595,25.514976,3,-0.986511,0.123596,0.096008,-0.047791,0.127282,0.324507,-1.993625,0.503250,-0.139426,-11.755479,170.002277,31.938965,-11.745368,0.000000,0.000000,
302472889,169.871633,25.505904,3,-0.985901,0.124878,0.095703,-0.056702,0.060030,0.191661,-1.961866,0.441246,-0.269804,-11.708463,170.317905,31.799202,-11.721164,0.000000,0.000000,
302482496,170.803762,25.510440,3,-0.985229,0.126160,0.095337,-0.065674,0.089819,0.592040,-2.261064,0.485821,0.048896,-12.087807,170.713816,31.738855,-11.961631,0.000000,0.000000,
302492227,170.599020,25.510440,3,-0.984436,0.127441,0.095032,-0.074585,-0.012015,0.198381,-1.735231,0.330871,-0.230673,-11.503825,171.000653,31.613849,-11.661371,0.000000,0.000000,
302503340,171.100179,25.505904,3,-0.983643,0.128723,0.094666,-0.083496,0.029505,0.616503,-2.262169,0.417526,0.050350,-12.105595,171.369852,31.490809,-11.952724,0.000000,0.000000,
302512585,171.715017,25.505904,3,-0.982666,0.130066,0.094360,-0.092346,0.040149,0.421157,-1.902030,0.375200,-0.051687,-11.716150,171.725150,31.422572,-11.797561,0.000000,0.000000,
302522447,172.011983,25.501369,3,-0.981689,0.131348,0.093933,-0.101257,-0.080853,0.200758,-1.695046,0.252267,-0.235511,-11.473988,172.088188,31.342047,-11.585338,0.000000,0.000000,
302533182,171.643789,25.519512,3,-0.980591,0.132568,0.093567,-0.110107,0.009933,0.618103,-2.262000,0.375872,0.041527,-12.120239,172.340705,31.161654,-11.936165,0.000000,0.000000,
302542682,172.463491,25.519512,3,-0.979431,0.133789,0.093079,-0.118958,-0.109565,0.307275,-1.664153,0.193784,-0.143860,-11.477915,172.659239,31.066892,-11.635612,0.000000,0.000000,
302553605,172.759939,25.514976,3,-0.978210,0.135010,0.092590,-0.127747,0.056328,0.261128,-2.095378,0.454677,-0.244966,-11.853820,173.016729,30.948960,-11.778727,0.000000,0.000000,
302563036,173.170065,25.514976,3,-0.976929,0.136108,0.092102,-0.136536,-0.031994,0.629679,-2.124701,0.288147,0.062335,-11.995129,173.336790,30.853502,-11.920658,0.000000,0.000000,
302572642,172.873067,25.519512,3,-0.975525,0.137207,0.091492,-0.145325,-0.062713,0.220432,-1.716624,0.268670,-0.232223,-11.497292,173.545847,30.690136,-11.642988,0.000000,0.000000,
302583716,173.354452,25.505904,3,-0.974121,0.138306,0.090820,-0.154053,0.031184,0.562667,-2.080779,0.337858,0.020579,-11.924503,173.849123,30.536539,-11.827626,0.000000,0.000000,
302593212,173.763570,25.505904,3,-0.972595,0.139343,0.090088,-0.162842,-0.044037,0.476064,-1.777516,0.215776,-0.014853,-11.626523,174.122556,30.416315,-11.695729,0.000000,0.000000,
302602952,173.579702,25.514976,3,-0.971008,0.140381,0.089355,-0.171570,-0.006628,0.110058,-1.610004,0.326077,-0.292256,-11.355897,174.316654,30.243715,-11.472846,0.000000,0.000000,
302613786,174.081014,25.510440,3,-0.969360,0.141357,0.088501,-0.180298,-0.015285,0.670628,-2.167687,0.253183,0.070482,-12.059224,174.599451,30.086513,-11.857434,0.000000,0.000000,
302623117,174.583944,25.505904,3,-0.967651,0.142334,0.087585,-0.189026,-0.112895,0.327900,-1.557693,0.137238,-0.131881,-11.380833,174.876811,29.978713,-11.544847,0.000000,0.000000,
302632817,174.900900,25.510440,3,-0.965820,0.143250,0.086609,-0.197754,-0.026089,0.297985,-1.989048,0.321792,-0.234973,-11.769540,175.171550,29.867286,-11.692216,0.000000,0.000000,
302643938,175.106252,25.510440,3,-0.963989,0.144165,0.085571,-0.206482,-0.052575,0.338417,-1.746264,0.221640,-0.149366,-11.560099,175.490767,29.731278,-11.605565,0.000000,0.000000,
302653374,175.721334,25.510440,3,-0.962036,0.145020,0.084473,-0.215271,-0.017999,0.246081,-1.601495,0.249926,-0.184471,-11.392286,175.814003,29.650512,-11.465681,0.000000,0.000000,
302663109,175.218374,25.514976,3,-0.959961,0.145874,0.083313,-0.224060,0.036249,0.257891,-2.035821,0.393281,-0.254683,-11.801404,175.990575,29.467692,-11.685874,0.000000,0.000000,
302673874,175.833486,25.514976,3,-0.957886,0.146729,0.082153,-0.232849,-0.028878,0.271381,-1.662411,0.238552,-0.186528,-11.461544,176.277724,29.326412,-11.538744,0.000000,0.000000,
302683326,176.038869,25.514976,3,-0.955688,0.147522,0.080933,-0.241577,-0.042634,0.223669,-1.776182,0.276788,-0.267297,-11.552925,176.509669,29.189716,-11.548046,0.000000,0.000000,
302693100,175.833486,25.514976,3,-0.953430,0.148315,0.079651,-0.250366,-0.004725,0.474476,-1.797650,0.189993,-0.048061,-11.653634,176.667846,28.998929,-11.617301,0.000000,0.000000,
302704228,176.335409,25.510440,3,-0.951050,0.149048,0.078247,-0.259033,0.044110,0.070920,-1.538721,0.357725,-0.297755,-11.274427,176.927603,28.835658,-11.392422,0.000000,0.000000,
302713652,177.155477,25.510440,3,-0.948669,0.149780,0.076904,-0.267761,0.078960,0.449712,-2.052452,0.316556,-0.089950,-11.882747,177.241486,28.749838,-11.714009,0.000000,0.000000,
302724509,177.247182,25.505904,3,-0.946167,0.150513,0.075562,-0.276428,0.077561,0.100751,-1.345129,0.325171,-0.202589,-11.102139,177.554062,28.629737,-11.312702,0.000000,0.000000,
302733758,177.155477,25.510440,3,-0.943604,0.151245,0.074158,-0.285095,0.005435,0.096045,-1.687661,0.344122,-0.330486,-11.428039,177.743699,28.477810,-11.388350,0.000000,0.000000,
302743385,177.452596,25.505904,3,-0.940918,0.151917,0.072754,-0.293701,0.051177,0.246929,-1.681271,0.298584,-0.184101,-11.469777,177.962833,28.334238,-11.441757,0.000000,0.000000,
302754184,177.360372,25.510440,3,-0.938232,0.152527,0.071411,-0.302307,-0.008741,0.089903,-1.362552,0.259957,-0.261370,-11.121135,178.155381,28.145886,-11.231473,0.000000,0.000000,
302763634,177.975057,25.510440,3,-0.935425,0.153198,0.069946,-0.310852,0.097432,0.437630,-1.923946,0.278810,-0.076256,-11.759423,178.387044,28.013872,-11.577740,0.000000,0.000000,
302773536,178.477102,25.505904,3,-0.932556,0.153870,0.068542,-0.319275,0.140829,0.069525,-1.500780,0.410097,-0.226219,-11.230309,178.680758,27.912876,-11.349870,0.000000,0.000000,
302784654,178.702993,25.514976,3,-0.929626,0.154602,0.067200,-0.327759,0.124002,0.079837,-1.727461,0.439543,-0.280970,-11.450449,178.994546,27.788135,-11.415836,0.000000,0.000000,
302794072,178.794698,25.510440,3,-0.926575,0.155273,0.065857,-0.336121,0.108196,0.509192,-1.743307,0.174930,0.014619,-11.607629,179.218291,27.655592,-11.541628,0.000000,0.000000,
302803633,179.297323,25.505904,3,-0.923523,0.156006,0.064453,-0.344421,0.035989,-0.097676,-1.367283,0.398678,-0.375990,-11.055319,179.497016,27.558962,-11.222673,0.000000,0.000000,
302814674,178.723959,25.524047,3,-0.920410,0.156738,0.063110,-0.352661,0.081027,0.133805,-1.750950,0.378926,-0.278308,-11.493470,179.655816,27.344696,-11.400284,0.000000,0.000000,
302824133,179.819387,25.510440,3,-0.917175,0.157410,0.061768,-0.360840,0.167754,0.194285,-1.393628,0.316345,-0.098521,-11.176968,179.944619,27.257945,-11.253817,0.000000,0.000000,
302833884,180.024831,25.510440,3,-0.913879,0.158142,0.060486,-0.368958,-0.017924,-0.151861,-1.361939,0.396479,-0.448830,-11.034793,180.224912,27.159496,-11.110166,0.000000,0.000000,
302844853,179.933126,25.514976,3,-0.910522,0.158936,0.059143,-0.377014,-0.032411,0.342460,-1.815720,0.158397,-0.249072,-11.627421,180.467457,26.999067,-11.449419,0.000000,0.000000,
302854277,180.639700,25.510440,3,-0.907104,0.159668,0.057861,-0.385071,0.107028,-0.033491,-1.275428,0.388679,-0.267112,-10.995592,180.753693,26.915520,-11.151767,0.000000,0.000000,
302863878,181.368337,25.514976,3,-0.903625,0.160461,0.056580,-0.393066,0.119832,0.127380,-1.711696,0.379920,-0.252463,-11.456226,181.126618,26.875569,-11.351450,0.000000,0.000000,
302874940,181.572805,25.514976,3,-0.900024,0.161316,0.055298,-0.401062,0.107446,0.253728,-1.584410,0.254881,-0.153543,-11.380148,181.506772,26.800164,-11.370270,0.000000,0.000000,
302884347,181.551839,25.505904,3,-0.896423,0.162170,0.054016,-0.408936,0.052191,-0.061565,-1.350881,0.390160,-0.334272,-11.054928,181.766848,26.701500,-11.163447,0.000000,0.000000,
302895234,181.870046,25.510440,3,-0.892700,0.163025,0.052734,-0.416809,0.116462,0.165092,-1.695125,0.342989,-0.241490,-11.459398,182.076187,26.588606,-11.357552,0.000000,0.000000,
302904478,181.459554,25.510440,3,-0.888916,0.164001,0.051514,-0.424561,0.125337,-0.012204,-1.316802,0.392219,-0.245629,-11.037699,182.206012,26.415355,-11.147773,0.000000,0.000000,
302914221,182.166769,25.505904,3,-0.885071,0.164917,0.050232,-0.432312,0.121426,0.072737,-1.520408,0.374786,-0.250300,-11.260775,182.455493,26.301180,-11.221888,0.000000,0.000000,
302924933,182.803243,25.514976,3,-0.881165,0.165894,0.048950,-0.440002,0.127518,0.221985,-1.454291,0.248327,-0.145054,-11.243152,182.801695,26.220122,-11.235833,0.000000,0.000000,
302934532,182.895528,25.510440,3,-0.877197,0.166870,0.047729,-0.447632,0.111153,-0.098927,-1.191406,0.416387,-0.264214,-10.894628,183.070467,26.126406,-11.012047,0.000000,0.000000,
302944215,182.895528,25.510440,3,-0.873169,0.167908,0.046448,-0.455261,0.164481,0.302763,-1.766307,0.270476,-0.152635,-11.577508,183.290139,25.994366,-11.382916,0.000000,0.000000,
302955338,183.510549,25.510440,3,-0.869080,0.168945,0.045227,-0.462769,0.107445,-0.064440,-1.135243,0.383560,-0.236614,-10.849283,183.619901,25.898364,-11.032922,0.000000,0.000000,
302964652,183.920065,25.510440,3,-0.864868,0.169922,0.044006,-0.470276,0.083084,0.066107,-1.519263,0.357375,-0.285977,-11.256315,183.916842,25.828116,-11.179437,0.000000,0.000000,
302974520,183.828298,25.514976,3,-0.860657,0.170959,0.042847,-0.477661,0.136738,0.401062,-1.754404,0.165622,-0.144044,-11.588564,184.154557,25.703700,-11.447771,0.000000,0.000000,
302985313,184.125631,25.510440,3,-0.856384,0.171936,0.041626,-0.485046,-0.073584,0.008144,-1.128660,0.222603,-0.351752,-10.855700,184.425953,25.583052,-11.059450,0.000000,0.000000,
302994841,184.125631,25.510440,3,-0.852051,0.172974,0.040466,-0.492371,0.117555,0.140592,-1.634124,0.332504,-0.254488,-11.388448,184.612927,25.439836,-11.275231,0.000000,0.000000,
303004633,184.238882,25.514976,3,-0.847656,0.173950,0.039368,-0.499695,0.106087,0.205849,-1.236364,0.184261,-0.137071,-11.039308,184.791493,25.289120,-11.120498,0.000000,0.000000,
303015707,185.150808,25.510440,3,-0.843201,0.174927,0.038269,-0.506897,0.078745,0.112038,-1.483702,0.300637,-0.268997,-11.232372,185.138151,25.205556,-11.193871,0.000000,0.000000,
303025041,185.037527,25.505904,3,-0.838684,0.175964,0.037170,-0.514099,0.091188,0.447931,-1.570840,0.050364,-0.146113,-11.430510,185.354061,25.087108,-11.349075,0.000000,0.000000,
303034776,185.766500,25.510440,3,-0.834106,0.176941,0.036011,-0.521240,0.131553,0.120762,-1.170695,0.243189,-0.137068,-10.949977,185.674990,25.027529,-11.087318,0.000000,0.000000,
303045858,185.674184,25.514976,3,-0.829468,0.177979,0.034790,-0.528259,0.124994,0.267759,-1.536701,0.202567,-0.193724,-11.342878,185.951487,24.901854,-11.254932,0.000000,0.000000,
303055179,185.879781,25.514976,3,-0.824768,0.178955,0.033569,-0.535339,-0.004483,0.406934,-1.447992,0.003587,-0.238088,-11.283509,186.169674,24.788370,-11.273675,0.000000,0.000000,
303064762,186.792379,25.510440,3,-0.820007,0.179932,0.032410,-0.542358,0.003862,0.028660,-1.220032,0.285585,-0.308901,-10.950898,186.523286,24.754384,-11.061973,0.000000,0.000000,
303075733,186.381704,25.510440,3,-0.815247,0.180908,0.031128,-0.549316,0.067446,0.497075,-1.554906,-0.020189,-0.182196,-11.422259,186.767654,24.613236,-11.298274,0.000000,0.000000,
303085210,186.792379,25.510440,3,-0.810364,0.181824,0.029907,-0.556213,0.035459,0.075734,-0.998357,0.198457,-0.214025,-10.763597,187.005086,24.514265,-10.947596,0.000000,0.000000,
303096166,187.294332,25.505904,3,-0.805420,0.182739,0.028625,-0.563110,0.102982,0.315939,-1.628839,0.163481,-0.242946,-11.436536,187.327139,24.422078,-11.268275,0.000000,0.000000,
303105456,187.910146,25.505904,3,-0.800476,0.183594,0.027344,-0.569885,0.155706,0.323858,-1.305935,0.098678,-0.112467,-11.149720,187.662757,24.386061,-11.190516,0.000000,0.000000,
303115163,188.228048,25.510440,3,-0.795471,0.184448,0.026062,-0.576660,-0.043920,0.106635,-1.058682,0.155146,-0.299015,-10.810770,188.004795,24.345515,-10.941450,0.000000,0.000000,
303125928,188.043905,25.519512,3,-0.790405,0.185303,0.024719,-0.583374,0.011555,0.476414,-1.601470,-0.020078,-0.300329,-11.447422,188.273514,24.226899,-11.273301,0.000000,0.000000,
303135383,188.546468,25.514976,3,-0.785278,0.186157,0.023376,-0.590027,-0.059783,0.073749,-1.114677,0.204204,-0.337894,-10.846461,188.553228,24.155861,-10.993349,0.000000,0.000000,
303145168,189.366964,25.514976,3,-0.780090,0.186951,0.022034,-0.596619,0.059540,0.347984,-1.503051,0.090315,-0.268853,-11.320741,188.941340,24.137515,-11.208072,0.000000,0.000000,
303156319,188.935720,25.505904,3,-0.774902,0.187744,0.020691,-0.603210,-0.025005,0.249126,-1.159305,0.065941,-0.287838,-10.946768,189.208775,24.014687,-11.036691,0.000000,0.000000,
303165789,189.345968,25.505904,3,-0.769653,0.188477,0.019348,-0.609680,-0.011193,0.066523,-1.075507,0.219461,-0.287018,-10.818763,189.461420,23.928194,-10.893758,0.000000,0.000000,
303175486,189.571554,25.514976,3,-0.764404,0.189209,0.017944,-0.616089,0.123884,0.505486,-1.477840,-0.058403,-0.197048,-11.350418,189.713518,23.830679,-11.193266,0.000000,0.000000,
303186322,189.982900,25.514976,3,-0.759094,0.189880,0.016541,-0.622437,0.030658,0.134721,-1.003195,0.149741,-0.220726,-10.778040,190.021579,23.744300,-10.920931,0.000000,0.000000,
303195676,190.074697,25.510440,3,-0.753784,0.190491,0.015076,-0.628723,0.062910,0.310272,-1.519622,0.120009,-0.311148,-11.321476,190.253117,23.644371,-11.183636,0.000000,0.000000,
303205480,190.300832,25.519512,3,-0.748413,0.191162,0.013611,-0.634949,0.106792,0.443419,-1.295475,-0.054227,-0.192544,-11.157576,190.493323,23.540403,-11.166544,0.000000,0.000000,
303216555,190.187521,25.514976,3,-0.743042,0.191772,0.012085,-0.641113,0.020734,0.036241,-1.093138,0.262275,-0.276086,-10.829240,190.696113,23.385689,-10.945318,0.000000,0.000000,
303225981,190.782522,25.505904,3,-0.737610,0.192322,0.010559,-0.647217,0.080543,0.325109,-1.481811,0.097917,-0.300618,-11.281839,190.932215,23.289197,-11.166031,0.000000,0.000000,
303235672,191.398000,25.505904,3,-0.732117,0.192810,0.009033,-0.653259,0.010748,0.133096,-0.963433,0.132639,-0.240073,-10.733094,191.244619,23.238312,-10.882080,0.000000,0.000000,
303246727,190.895315,25.510440,3,-0.726624,0.193298,0.007446,-0.659241,0.021072,0.039466,-1.132730,0.265881,-0.287013,-10.867609,191.435436,23.078581,-10.872590,0.000000,0.000000,
303256095,191.214346,25.514976,3,-0.721069,0.193787,0.005920,-0.665161,-0.030963,0.482346,-1.394884,-0.088961,-0.391304,-11.215433,191.609714,22.947811,-11.097451,0.000000,0.000000,
303266988,190.916830,25.519512,3,-0.715576,0.194153,0.004333,-0.671021,0.028128,0.145515,-0.895928,0.101694,-0.215575,-10.675383,191.729275,22.752428,-10.820633,0.000000,0.000000,
303276159,191.624166,25.514976,3,-0.709961,0.194519,0.002747,-0.676819,0.021152,0.323460,-1.402119,0.069430,-0.361691,-11.192145,191.917761,22.637449,-11.064296,0.000000,0.000000,
303285868,191.716543,25.510440,3,-0.704285,0.194885,0.001160,-0.682617,0.011290,0.404035,-1.192424,-0.061564,-0.320303,-11.018478,192.099371,22.507607,-11.034246,0.000000,0.000000,
303296840,192.218740,25.505904,3,-0.698608,0.195251,-0.000488,-0.688354,-0.005253,0.000930,-1.109456,0.302129,-0.308494,-10.818995,192.368033,22.402297,-10.893070,0.000000,0.000000,
303306287,192.332082,25.510440,3,-0.692871,0.195557,-0.002136,-0.693970,0.049092,0.457895,-1.413745,-0.052561,-0.356919,-11.239843,192.572417,22.291846,-11.120507,0.000000,0.000000,
303315890,192.948202,25.510440,3,-0.687134,0.195923,-0.003845,-0.699585,-0.041063,0.029106,-0.826189,0.199617,-0.276257,-10.557478,192.856355,22.233248,-10.751232,0.000000,0.000000,
303327000,192.969198,25.519512,3,-0.681335,0.196228,-0.005554,-0.705139,0.055375,0.112339,-1.227795,0.227691,-0.299994,-10.980213,193.123809,22.124114,-10.901413,0.000000,0.000000,
303336305,193.952749,25.501369,3,-0.675476,0.196472,-0.007263,-0.710693,0.089034,0.126695,-0.964109,0.136200,-0.193847,-10.744602,193.484467,22.119866,-10.798562,0.000000,0.000000,
303346181,193.655660,25.505904,3,-0.669617,0.196777,-0.009033,-0.716125,0.007389,-0.077400,-0.877047,0.316501,-0.227488,-10.590680,193.734459,22.034713,-10.662218,0.000000,0.000000,
303356980,193.973745,25.510440,3,-0.663696,0.197021,-0.010803,-0.721497,0.110162,0.405707,-1.312046,-0.039262,-0.313945,-11.143363,194.016550,21.941670,-10.977785,0.000000,0.000000,
303366497,194.087637,25.514976,3,-0.657715,0.197266,-0.012573,-0.726868,0.005113,-0.064187,-0.799475,0.282884,-0.211996,-10.526743,194.238227,21.849815,-10.681960,0.000000,0.000000,
303376201,194.384725,25.510440,3,-0.651794,0.197510,-0.014343,-0.732117,0.060295,0.320260,-1.402458,0.074547,-0.386898,-11.181537,194.477132,21.757966,-11.009616,0.000000,0.000000,
303387306,193.882406,25.514976,3,-0.645752,0.197754,-0.016052,-0.737305,0.010579,0.131484,-0.943637,0.130176,-0.276266,-10.703989,194.606728,21.571630,-10.809168,0.000000,0.000000,
303396587,195.502798,25.505904,3,-0.639709,0.197998,-0.017761,-0.742432,0.027474,-0.039183,-1.126281,0.346043,-0.286260,-10.839037,194.974306,21.574621,-10.828754,0.000000,0.000000,
303407494,194.794668,25.510440,3,-0.633667,0.198181,-0.019470,-0.747498,0.060198,0.249493,-1.013207,0.035871,-0.279417,-10.801854,195.175331,21.436361,-10.811112,0.000000,0.000000,
303416676,195.000448,25.510440,3,-0.627625,0.198364,-0.021118,-0.752563,-0.013197,-0.085474,-0.758101,0.298139,-0.210612,-10.471235,195.338979,21.320144,-10.588198,0.000000,0.000000,
303426507,195.113821,25.514976,3,-0.621460,0.198608,-0.022827,-0.757507,0.034203,0.133601,-1.229238,0.205098,-0.351567,-10.971373,195.505889,21.186745,-10.839511,0.000000,0.000000,
303437303,195.410390,25.510440,3,-0.615234,0.198792,-0.024475,-0.762451,0.104306,0.153938,-0.838828,0.067502,-0.180965,-10.632479,195.716128,21.061068,-10.703726,0.000000,0.000000,
303446783,196.437765,25.510440,3,-0.609070,0.198975,-0.026123,-0.767334,-0.113409,-0.030085,-0.859461,0.286485,-0.343083,-10.543414,196.050461,21.044154,-10.598579,0.000000,0.000000,
303456594,196.232504,25.510440,3,-0.602783,0.199219,-0.027832,-0.772156,0.011966,0.410484,-1.271608,-0.036738,-0.464344,-11.054806,196.290448,20.956389,-10.897804,0.000000,0.000000,
303467669,196.026693,25.510440,3,-0.596497,0.199402,-0.029480,-0.776917,-0.016228,-0.044537,-0.781122,0.260955,-0.222906,-10.499380,196.472516,20.810055,-10.636491,0.000000,0.000000,
303477086,196.551168,25.514976,3,-0.590088,0.199646,-0.031128,-0.781616,0.000824,0.034617,-1.053377,0.259552,-0.307249,-10.774357,196.682733,20.717629,-10.726913,0.000000,0.000000,
303486771,197.054128,25.510440,3,-0.583740,0.199890,-0.032837,-0.786316,-0.016481,0.271213,-1.200595,0.085856,-0.449531,-10.947175,196.952385,20.653944,-10.871374,0.000000,0.000000,
303497828,197.258901,25.510440,3,-0.577271,0.200134,-0.034485,-0.790894,-0.007119,-0.051787,-0.702022,0.244174,-0.191649,-10.430041,197.237541,20.573148,-10.581916,0.000000,0.000000,
303507227,196.847799,25.510440,3,-0.570801,0.200378,-0.036194,-0.795410,-0.079355,0.075349,-1.114507,0.268616,-0.413241,-10.807896,197.357414,20.426417,-10.730131,0.000000,0.000000,
303516788,197.577596,25.514976,3,-0.564270,0.200684,-0.037903,-0.799927,-0.030925,0.147091,-0.855828,0.117631,-0.328572,-10.592384,197.593446,20.350250,-10.639786,0.000000,0.000000,
303527938,197.372305,25.514976,3,-0.557739,0.200928,-0.039673,-0.804382,-0.051488,-0.039231,-1.046420,0.344711,-0.333493,-10.734754,197.778268,20.205616,-10.702074,0.000000,0.000000,
303537401,197.761343,25.505904,3,-0.551147,0.201233,-0.041382,-0.808716,-0.036962,0.414485,-1.271186,-0.000581,-0.562683,-11.008119,197.965796,20.099369,-10.902799,0.000000,0.000000,
303547139,198.285909,25.510440,3,-0.544556,0.201477,-0.043091,-0.813049,-0.040438,-0.017318,-0.615910,0.205575,-0.205981,-10.347011,198.220985,20.035148,-10.538274,0.000000,0.000000,
303557988,198.604635,25.514976,3,-0.537903,0.201782,-0.044861,-0.817261,-0.020640,0.070548,-1.115015,0.266681,-0.371102,-10.816516,198.509546,19.961431,-10.720763,0.000000,0.000000,
303567312,198.194021,25.514976,3,-0.531189,0.202087,-0.046631,-0.821472,-0.064894,0.360631,-1.059847,0.004341,-0.518597,-10.796337,198.636102,19.824361,-10.770331,0.000000,0.000000,
303578118,199.107168,25.510440,3,-0.524475,0.202393,-0.048401,-0.825623,-0.107177,-0.110346,-0.833215,0.380234,-0.283705,-10.502120,198.937943,19.764270,-10.594418,0.000000,0.000000,
303587350,198.993734,25.505904,3,-0.517639,0.202698,-0.050171,-0.829712,-0.038245,0.286832,-1.132751,0.088635,-0.501357,-10.857451,199.130380,19.670358,-10.766933,0.000000,0.000000,
303596923,198.809957,25.514976,3,-0.510803,0.203064,-0.051941,-0.833740,-0.053270,-0.091141,-0.648884,0.289433,-0.188961,-10.361071,199.258268,19.534854,-10.500742,0.000000,0.000000,
303607919,199.312490,25.510440,3,-0.503906,0.203430,-0.053711,-0.837708,0.053803,0.363122,-1.209333,0.016477,-0.485454,-10.961976,199.482543,19.420643,-10.803251,0.000000,0.000000,
303617529,199.220602,25.514976,3,-0.497009,0.203796,-0.055542,-0.841614,-0.017183,0.079242,-0.752095,0.157664,-0.280435,-10.489788,199.619652,19.289845,-10.597661,0.000000,0.000000,
303627344,200.545065,25.510440,3,-0.490051,0.204224,-0.057373,-0.845459,-0.071911,-0.080673,-0.757594,0.323040,-0.246138,-10.451730,199.981714,19.292600,-10.501946,0.000000,0.000000,
303638264,200.247305,25.514976,3,-0.483154,0.204651,-0.059204,-0.849243,-0.034046,0.470410,-1.128442,-0.049489,-0.615384,-10.854523,200.241466,19.204324,-10.733189,0.000000,0.000000,
303647589,200.133840,25.510440,3,-0.476196,0.205078,-0.061035,-0.852905,-0.095613,-0.048616,-0.651770,0.276509,-0.239800,-10.346710,200.399958,19.095581,-10.479710,0.000000,0.000000,
303657391,200.019888,25.505904,3,-0.469238,0.205627,-0.062866,-0.856506,-0.013280,0.231888,-1.197370,0.168662,-0.494025,-10.896998,200.515452,18.945577,-10.753398,0.000000,0.000000,
303668537,200.565572,25.519512,3,-0.462219,0.206116,-0.064758,-0.860046,-0.052272,0.131761,-0.647799,0.114749,-0.309255,-10.379592,200.735377,18.835386,-10.508230,0.000000,0.000000,
303677986,201.069234,25.514976,3,-0.455261,0.206665,-0.066589,-0.863525,-0.038493,0.001225,-0.843566,0.275565,-0.284147,-10.550495,200.975424,18.774323,-10.535949,0.000000,0.000000,
303687677,200.749899,25.510440,3,-0.448181,0.207153,-0.068481,-0.866882,-0.037645,0.373056,-1.002325,0.024117,-0.551325,-10.717724,201.114633,18.644690,-10.655170,0.000000,0.000000,
303698754,201.457906,25.505904,3,-0.441101,0.207642,-0.070374,-0.870239,0.014783,0.031874,-0.679837,0.175200,-0.213959,-10.424172,201.384826,18.568065,-10.503664,0.000000,0.000000,
303707982,201.869192,25.505904,3,-0.433960,0.208191,-0.072266,-0.873535,0.101111,0.228242,-1.031729,0.079626,-0.380879,-10.788838,201.646429,18.524446,-10.690699,0.000000,0.000000,
303718944,201.869192,25.505904,3,-0.426880,0.208679,-0.074219,-0.876770,0.056829,0.287205,-0.996636,0.051199,-0.451023,-10.735337,201.890574,18.432125,-10.719975,0.000000,0.000000,
303728118,202.074575,25.505904,3,-0.419678,0.209167,-0.076172,-0.879944,0.060958,-0.061419,-0.653123,0.219855,-0.119028,-10.411234,202.093712,18.358054,-10.517480,0.000000,0.000000,
303737844,202.372427,25.501369,3,-0.412476,0.209656,-0.078186,-0.883057,0.155700,0.288878,-1.116258,0.034614,-0.425799,-10.883037,202.323898,18.283888,-10.757236,0.000000,0.000000,
303748919,201.684835,25.514976,3,-0.405273,0.210144,-0.080261,-0.886108,0.073745,-0.005489,-0.520362,0.129562,-0.110505,-10.298176,202.406107,18.097356,-10.456155,0.000000,0.000000,
303758366,202.485372,25.505904,3,-0.398071,0.210571,-0.082275,-0.889038,0.018282,0.012861,-0.806093,0.237001,-0.244617,-10.532788,202.591446,18.006973,-10.506416,0.000000,0.000000,
303767983,202.188039,25.510440,3,-0.390808,0.210999,-0.084351,-0.891968,0.093441,0.294798,-0.889708,0.008587,-0.422249,-10.643011,202.688611,17.858642,-10.596006,0.000000,0.000000,
303779015,202.393972,25.510440,3,-0.383545,0.211365,-0.086365,-0.894836,-0.002648,-0.033418,-0.457879,0.176365,-0.125519,-10.207441,202.829848,17.712529,-10.341160,0.000000,0.000000,
303788262,202.804739,25.510440,3,-0.376343,0.211731,-0.088440,-0.897644,0.119420,0.249529,-1.073103,0.086459,-0.434974,-10.816566,202.988448,17.609397,-10.652964,0.000000,0.000000,
303798127,203.442495,25.519512,3,-0.369080,0.212036,-0.090454,-0.900391,0.137802,0.201662,-0.745023,0.007378,-0.301076,-10.525075,203.246640,17.557083,-10.569084,0.000000,0.000000,
303808920,203.009634,25.510440,3,-0.361877,0.212280,-0.092468,-0.903015,0.142356,0.175237,-0.900167,0.072748,-0.330312,-10.664775,203.391130,17.415172,-10.631846,0.000000,0.000000,
303818378,203.307485,25.505904,3,-0.354675,0.212524,-0.094482,-0.905579,0.111412,0.312860,-0.891489,-0.003483,-0.447697,-10.639616,203.539702,17.304921,-10.636943,0.000000,0.000000,
303828081,203.923727,25.505904,3,-0.347473,0.212708,-0.096558,-0.908142,0.111964,0.017422,-0.601498,0.100872,-0.150606,-10.383823,203.779007,17.247804,-10.470928,0.000000,0.000000,
303839162,203.831808,25.510440,3,-0.340271,0.212891,-0.098572,-0.910583,0.156117,0.257928,-0.976073,0.034681,-0.430347,-10.726072,203.979348,17.135035,-10.638269,0.000000,0.000000,
303848493,204.128622,25.505904,3,-0.333069,0.213013,-0.100525,-0.913025,0.128920,0.025809,-0.484502,0.042835,-0.108697,-10.286688,204.166762,17.056432,-10.407677,0.000000,0.000000,
303858387,204.356130,25.514976,3,-0.325806,0.213135,-0.102539,-0.915344,0.132465,0.024690,-0.710546,0.114453,-0.182617,-10.487320,204.370449,16.974202,-10.459912,0.000000,0.000000,
303869191,204.356130,25.514976,3,-0.318665,0.213257,-0.104492,-0.917664,0.167850,0.321271,-0.814424,-0.060717,-0.431677,-10.586729,204.550534,16.858240,-10.543087,0.000000,0.000000,
303878700,204.972433,25.514976,3,-0.311462,0.213318,-0.106445,-0.919861,0.052905,-0.015982,-0.371722,0.094544,-0.091561,-10.155150,204.789416,16.810406,-10.288649,0.000000,0.000000,
303889529,204.766988,25.514976,3,-0.304260,0.213318,-0.108459,-0.922058,0.151654,0.320140,-1.020502,0.026972,-0.519873,-10.751599,204.966605,16.691583,-10.592284,0.000000,0.000000,
303898972,205.269827,25.510440,3,-0.297119,0.213257,-0.110413,-0.924133,0.115024,0.207606,-0.558402,-0.024828,-0.302325,-10.327797,205.180576,16.629200,-10.418814,0.000000,0.000000,
303908633,205.475271,25.510440,3,-0.289978,0.213257,-0.112427,-0.926147,0.113570,0.032740,-0.789561,0.152148,-0.239949,-10.545600,205.395900,16.560925,-10.501968,0.000000,0.000000,
303919766,205.086446,25.519512,3,-0.282898,0.213135,-0.114441,-0.928162,0.151981,0.253404,-0.680742,-0.033961,-0.360390,-10.444365,205.521671,16.409564,-10.464189,0.000000,0.000000,
303929137,205.886709,25.510440,3,-0.275818,0.212952,-0.116455,-0.930054,0.053244,-0.012757,-0.411314,0.105207,-0.105910,-10.191851,205.743393,16.356422,-10.285569,0.000000,0.000000,
303938864,205.794241,25.514976,3,-0.268677,0.212769,-0.118469,-0.931946,0.188655,0.065663,-0.793462,0.082603,-0.239097,-10.580798,205.911498,16.259293,-10.479200,0.000000,0.000000,
303949959,206.092184,25.510440,3,-0.261597,0.212524,-0.120483,-0.933716,0.079758,0.177932,-0.634024,0.049322,-0.329992,-10.375169,206.125102,16.164620,-10.410969,0.000000,0.000000,
303959232,206.822622,25.514976,3,-0.254578,0.212219,-0.122559,-0.935486,0.097988,-0.084775,-0.406009,0.100961,-0.031261,-10.207783,206.405227,16.150789,-10.277703,0.000000,0.000000,
303968836,206.502584,25.510440,3,-0.247498,0.211914,-0.124573,-0.937195,0.107034,0.375877,-0.945817,0.037624,-0.594628,-10.637510,206.578056,16.059692,-10.513689,0.000000,0.000000,
303979914,206.708608,25.510440,3,-0.240417,0.211609,-0.126648,-0.938843,0.074877,-0.047075,-0.369472,0.087737,-0.059146,-10.166376,206.779801,15.961645,-10.285897,0.000000,0.000000,
303989387,206.410635,25.514976,3,-0.233398,0.211182,-0.128723,-0.940430,0.089874,0.099777,-0.873414,0.170275,-0.354210,-10.590870,206.861369,15.818613,-10.485921,0.000000,0.000000,
303999114,206.822622,25.514976,3,-0.226379,0.210754,-0.130737,-0.941956,0.130476,0.306422,-0.832270,0.026443,-0.510065,-10.546373,207.007482,15.711611,-10.525570,0.000000,0.000000,
304010158,207.736044,25.510440,3,-0.219360,0.210327,-0.132812,-0.943420,-0.009232,-0.071942,-0.454569,0.195312,-0.098859,-10.207701,207.316839,15.681299,-10.317087,0.000000,0.000000,
304019425,207.530538,25.510440,3,-0.212280,0.209839,-0.134827,-0.944824,0.026020,0.160340,-0.838152,0.185367,-0.421407,-10.519235,207.501723,15.608425,-10.449669,0.000000,0.000000,
304030202,208.147024,25.510440,3,-0.205261,0.209351,-0.136841,-0.946228,0.022892,0.130510,-0.471923,0.081838,-0.274270,-10.194872,207.790211,15.571819,-10.282553,0.000000,0.000000,
304039409,208.239004,25.505904,3,-0.198181,0.208862,-0.138855,-0.947510,0.056411,-0.000014,-0.687655,0.183899,-0.227153,-10.428502,208.017178,15.527493,-10.378274,0.000000,0.000000,
304049008,207.828542,25.505904,3,-0.191162,0.208313,-0.140869,-0.948792,0.097098,0.207438,-0.656408,0.056803,-0.381891,-10.376992,208.130450,15.406506,-10.377434,0.000000,0.000000,
304060126,208.239004,25.505904,3,-0.184082,0.207703,-0.142883,-0.950012,0.098580,-0.079132,-0.475296,0.112425,-0.066782,-10.268999,208.321433,15.304497,-10.306314,0.000000,0.000000,
304069612,207.942068,25.510440,3,-0.177002,0.207153,-0.144897,-0.951172,0.071007,0.338948,-0.932356,0.128709,-0.613929,-10.575810,208.395074,15.160398,-10.483070,0.000000,0.000000,
304079483,208.125478,25.501369,3,-0.169922,0.206543,-0.146851,-0.952271,0.015318,-0.050336,-0.269984,0.101536,-0.049001,-10.048948,208.493784,15.030529,-10.198344,0.000000,0.000000,
304090337,208.856069,25.505904,3,-0.162903,0.205933,-0.148865,-0.953369,0.108262,0.086889,-0.735010,0.130428,-0.315833,-10.471510,208.724145,14.958082,-10.377504,0.000000,0.000000,
304099597,208.764089,25.510440,3,-0.155884,0.205322,-0.150818,-0.954346,0.036862,0.197727,-0.477735,0.062466,-0.343117,-10.187969,208.869710,14.868428,-10.253193,0.000000,0.000000,
304109225,208.856069,25.505904,3,-0.148804,0.204651,-0.152832,-0.955322,0.015994,-0.043887,-0.349169,0.117621,-0.083046,-10.119557,209.009847,14.769452,-10.165545,0.000000,0.000000,
304120344,209.083150,25.514976,3,-0.141785,0.203979,-0.154785,-0.956238,0.066961,0.370210,-0.836600,0.109878,-0.625665,-10.469985,209.187134,14.661455,-10.365218,0.000000,0.000000,
304129831,209.472646,25.505904,3,-0.134766,0.203247,-0.156738,-0.957031,-0.025197,0.107593,-0.380805,0.125134,-0.243308,-10.090682,209.379261,14.598740,-10.185157,0.000000,0.000000,
304139657,208.877615,25.514976,3,-0.127808,0.202576,-0.158691,-0.957825,0.008973,0.116166,-0.755573,0.218073,-0.374743,-10.427525,209.428286,14.439143,-10.344121,0.000000,0.000000,
304150584,209.288137,25.514976,3,-0.120850,0.201843,-0.160583,-0.958557,0.049322,0.320393,-0.684734,0.103758,-0.531500,-10.334150,209.559198,14.310312,-10.337582,0.000000,0.000000,
304159938,209.380666,25.510440,3,-0.113892,0.201111,-0.162537,-0.959229,0.000886,-0.104498,-0.304570,0.137150,-0.019948,-10.088873,209.659188,14.195426,-10.174462,0.000000,0.000000,
304169778,209.883199,25.505904,3,-0.106934,0.200378,-0.164490,-0.959900,0.097904,0.232587,-0.845278,0.146116,-0.507954,-10.503808,209.840282,14.117567,-10.390469,0.000000,0.000000,
304180814,210.295339,25.505904,3,-0.099976,0.199585,-0.166504,-0.960449,-0.069494,0.050995,-0.355748,0.177480,-0.188735,-10.065714,210.080713,14.057962,-10.177470,0.000000,0.000000,
304190267,209.700277,25.514976,3,-0.093018,0.198853,-0.168457,-0.960938,-0.019018,-0.071142,-0.454485,0.196843,-0.101320,-10.205223,210.141878,13.917482,-10.195674,0.000000,0.000000,
304201088,210.408376,25.510440,3,-0.086121,0.198059,-0.170410,-0.961426,0.044775,0.381798,-0.719266,0.120620,-0.615314,-10.323748,210.341794,13.836228,-10.279673,0.000000,0.000000,
304210357,210.613912,25.510440,3,-0.079163,0.197327,-0.172363,-0.961792,-0.019810,0.019269,-0.255578,0.111987,-0.118000,-10.007376,210.520599,13.775083,-10.101080,0.000000,0.000000,
304219941,210.819997,25.510440,3,-0.072205,0.196533,-0.174316,-0.962158,0.035651,0.273487,-0.808403,0.200131,-0.546178,-10.428472,210.708165,13.709207,-10.315805,0.000000,0.000000,
304231088,211.025045,25.510440,3,-0.065308,0.195801,-0.176270,-0.962463,0.053779,0.223201,-0.450629,0.065322,-0.373098,-10.138798,210.919697,13.631883,-10.199710,0.000000,0.000000,
304240346,211.025045,25.510440,3,-0.058350,0.195007,-0.178223,-0.962708,-0.026051,0.018950,-0.481537,0.193649,-0.194186,-10.194812,211.065195,13.549667,-10.196497,0.000000,0.000000,
304250193,211.528707,25.505904,3,-0.051453,0.194275,-0.180176,-0.962891,0.066623,0.366985,-0.797007,0.156191,-0.634339,-10.387136,211.284864,13.500040,-10.321529,0.000000,0.000000,
304261007,211.528707,25.505904,3,-0.044495,0.193542,-0.182129,-0.963013,0.011824,0.003656,-0.333404,0.110917,-0.126504,-10.093026,211.475934,13.418438,-10.171660,0.000000,0.000000,
304270485,210.819997,25.510440,3,-0.037537,0.192810,-0.184143,-0.963074,0.016834,0.247364,-0.707641,0.207205,-0.496070,-10.328853,211.479800,13.245010,-10.274761,0.000000,0.000000,
304280186,212.052908,25.510440,3,-0.030640,0.192078,-0.186096,-0.963074,-0.021813,0.185441,-0.387339,0.142937,-0.313781,-10.058922,211.715094,13.212604,-10.133197,0.000000,0.000000,
304291315,211.847860,25.510440,3,-0.023682,0.191284,-0.188110,-0.963013,-0.044828,-0.024261,-0.290886,0.147447,-0.086830,-10.041267,211.886382,13.115824,-10.072902,0.000000,0.000000,
304300704,211.847860,25.510440,3,-0.016724,0.190552,-0.190125,-0.962952,-0.023666,0.520853,-0.808424,0.257160,-0.788643,-10.293546,212.001846,13.014632,-10.217615,0.000000,0.000000,
304310530,212.166463,25.514976,3,-0.009827,0.189758,-0.192200,-0.962769,-0.056330,0.093063,-0.172691,0.104244,-0.148233,-9.893041,212.160081,12.936175,-10.004737,0.000000,0.000000,
304321341,212.074453,25.519512,3,-0.002930,0.189026,-0.194275,-0.962585,-0.021463,0.258626,-0.806283,0.298185,-0.543393,-10.379362,212.283276,12.814372,-10.250442,0.000000,0.000000,
304330886,212.052908,25.510440,3,0.004028,0.188171,-0.196350,-0.962280,0.002932,0.394180,-0.591865,0.190041,-0.584908,-10.154833,212.361982,12.690924,-10.187736,0.000000,0.000000,
304341749,212.669668,25.510440,3,0.010925,0.187378,-0.198425,-0.961975,-0.044152,-0.017811,-0.370070,0.177331,-0.120332,-10.105276,212.556890,12.616196,-10.133652,0.000000,0.000000,
304351160,212.372579,25.514976,3,0.017883,0.186584,-0.200562,-0.961609,0.014141,0.291525,-0.770254,0.262599,-0.565684,-10.341637,212.640625,12.497461,-10.270064,0.000000,0.000000,
304360720,213.287008,25.510440,3,0.024841,0.185791,-0.202698,-0.961121,-0.019810,0.019269,-0.255578,0.113771,-0.112159,-10.003889,212.880654,12.475600,-10.095485,0.000000,0.000000,
304371815,212.669668,25.510440,3,0.031738,0.184998,-0.204895,-0.960632,0.057493,0.223694,-0.696468,0.206287,-0.481392,-10.319333,212.978915,12.337357,-10.242301,0.000000,0.000000,
304381197,213.264913,25.501369,3,0.038696,0.184204,-0.207092,-0.960022,-0.012683,0.328732,-0.487878,0.189233,-0.489332,-10.067107,213.147800,12.276015,-10.127396,0.000000,0.000000,
304390917,213.195516,25.514976,3,0.045593,0.183411,-0.209351,-0.959412,-0.025595,-0.029086,-0.251462,0.117762,-0.065689,-10.013933,213.275586,12.184115,-10.052979,0.000000,0.000000,
304401978,212.989889,25.514976,3,0.052429,0.182617,-0.211548,-0.958740,0.066115,0.362148,-0.737619,0.225786,-0.626537,-10.288390,213.356211,12.038070,-10.207379,0.000000,0.000000,
304411189,213.606741,25.514976,3,0.059326,0.181885,-0.213745,-0.957947,-0.044585,0.226366,-0.390395,0.203350,-0.351892,-10.015883,213.513601,11.974852,-10.081781,0.000000,0.000000,
304420907,213.903860,25.510440,3,0.066223,0.181091,-0.216003,-0.957153,-0.008249,0.035400,-0.463522,0.189190,-0.214885,-10.163969,213.702528,11.920387,-10.135684,0.000000,0.000000,
304432052,213.400594,25.514976,3,0.073059,0.180298,-0.218262,-0.956299,0.067203,0.302668,-0.486942,0.146479,-0.473876,-10.094510,213.778215,11.773753,-10.108680,0.000000,0.000000,
304441494,213.698751,25.510440,3,0.079895,0.179504,-0.220520,-0.955383,-0.016739,-0.038754,-0.142668,0.073947,-0.018567,-9.933739,213.874063,11.670851,-9.993942,0.000000,0.000000,
304451229,215.025106,25.505904,3,0.086670,0.178772,-0.222778,-0.954407,0.060779,0.185176,-0.703142,0.232096,-0.455378,-10.319368,214.202653,11.701581,-10.207374,0.000000,0.000000,
304462100,214.223592,25.514976,3,0.093445,0.178040,-0.225037,-0.953369,-0.005025,0.192216,-0.250547,0.125057,-0.268694,-9.920173,214.333208,11.596003,-10.019008,0.000000,0.000000,
304471424,214.202016,25.505904,3,0.100220,0.177307,-0.227295,-0.952271,-0.005685,-0.027461,-0.291224,0.116269,-0.089699,-10.051751,214.416321,11.487147,-10.040484,0.000000,0.000000,
304481069,214.407644,25.505904,3,0.106995,0.176575,-0.229553,-0.951172,0.057984,0.441759,-0.635996,0.247541,-0.656207,-10.139690,214.525015,11.388362,-10.105550,0.000000,0.000000,
304492106,215.343832,25.510440,3,0.113770,0.175842,-0.231873,-0.949951,0.008285,0.039756,-0.297036,0.118667,-0.152878,-10.028286,214.803410,11.370025,-10.054872,0.000000,0.000000,
304501601,214.521261,25.510440,3,0.120483,0.175049,-0.234192,-0.948669,0.102897,0.371353,-0.650486,0.217240,-0.613457,-10.192018,214.858060,11.240709,-10.144823,0.000000,0.000000,
304512516,214.818929,25.505904,3,0.127197,0.174316,-0.236450,-0.947388,0.021956,0.086661,-0.173367,0.069442,-0.153711,-9.903371,214.972842,11.128071,-9.986463,0.000000,0.000000,
304521953,214.818929,25.505904,3,0.133911,0.173523,-0.238770,-0.945984,0.048104,0.043005,-0.376559,0.112021,-0.206828,-10.098591,215.048569,11.014919,-10.060005,0.000000,0.000000,
304531639,214.840475,25.514976,3,0.140564,0.172729,-0.241089,-0.944580,0.102891,0.336373,-0.460810,0.155315,-0.507589,-10.039317,215.115832,10.893928,-10.046437,0.000000,0.000000,
304542401,215.548940,25.510440,3,0.147278,0.171936,-0.243469,-0.943115,-0.027370,-0.046016,-0.043602,0.037691,0.034696,-9.853646,215.313614,10.836924,-9.919990,0.000000,0.000000,
304551776,215.251760,25.514976,3,0.153931,0.171082,-0.245789,-0.941589,0.141877,0.401520,-0.820705,0.287244,-0.722731,-10.296937,215.403157,10.733143,-10.167218,0.000000,0.000000,
304561622,215.435873,25.505904,3,0.160583,0.170288,-0.248169,-0.940002,0.012946,0.210278,-0.252329,0.138639,-0.276915,-9.895739,215.514490,10.639409,-9.989163,0.000000,0.000000,
304572731,215.343832,25.510440,3,0.167175,0.169434,-0.250610,-0.938354,0.107495,0.044653,-0.456251,0.105318,-0.271475,-10.173811,215.600087,10.507155,-10.110268,0.000000,0.000000,
304582157,215.939230,25.501369,3,0.173767,0.168579,-0.252991,-0.936707,0.167734,0.418132,-0.694702,0.235941,-0.694870,-10.183000,215.762202,10.450347,-10.157969,0.000000,0.000000,
304591729,215.961294,25.510440,3,0.180298,0.167725,-0.255371,-0.934937,0.033790,-0.062417,-0.141478,0.013619,-0.024694,-9.954154,215.899053,10.377787,-10.024292,0.000000,0.000000,
304602628,216.670370,25.505904,3,0.186829,0.166809,-0.257812,-0.933167,0.080682,0.151820,-0.553227,0.199130,-0.381074,-10.182771,216.155972,10.354084,-10.128231,0.000000,0.000000,
304611996,216.486257,25.514976,3,0.193359,0.165894,-0.260254,-0.931335,0.035594,0.185634,-0.329264,0.154852,-0.298160,-9.969599,216.314390,10.298754,-10.024187,0.000000,0.000000,
304621841,216.258504,25.505904,3,0.199829,0.164978,-0.262695,-0.929443,0.090780,-0.031276,-0.223589,0.008917,-0.108014,-10.010830,216.404837,10.193856,-10.015427,0.000000,0.000000,
304632940,217.081716,25.505904,3,0.206238,0.164001,-0.265137,-0.927490,0.157903,0.401039,-0.594830,0.231348,-0.641775,-10.088010,216.644118,10.158542,-10.063029,0.000000,0.000000,
304642394,216.783468,25.510440,3,0.212646,0.163025,-0.267578,-0.925537,0.059499,0.103123,-0.175318,0.058065,-0.185646,-9.894940,216.765827,10.081172,-9.952784,0.000000,0.000000,
304651942,216.691946,25.514976,3,0.218994,0.162048,-0.270020,-0.923523,0.099330,0.176332,-0.634193,0.242178,-0.455574,-10.226429,216.847774,9.975073,-10.132259,0.000000,0.000000,
304663121,217.493093,25.505904,3,0.225281,0.161011,-0.272522,-0.921448,0.158658,0.373315,-0.494237,0.201564,-0.573447,-10.008879,217.079516,9.936077,-10.051335,0.000000,0.000000,
304672338,216.578298,25.510440,3,0.231567,0.159912,-0.275024,-0.919312,0.052522,-0.037100,-0.232342,0.046003,-0.101066,-10.017123,217.076792,9.785801,-10.028899,0.000000,0.000000,
304682215,217.081716,25.505904,3,0.237793,0.158875,-0.277527,-0.917175,0.147348,0.314003,-0.705376,0.288376,-0.613174,-10.204452,217.173863,9.685582,-10.144039,0.000000,0.000000,
304693008,217.195882,25.510440,3,0.243958,0.157776,-0.279968,-0.914978,0.099566,0.073810,-0.094859,-0.011510,-0.153438,-9.846934,217.281962,9.581700,-9.949177,0.000000,0.000000,
304702507,216.691946,25.514976,3,0.250122,0.156616,-0.282471,-0.912781,0.089017,0.021754,-0.395081,0.111392,-0.235459,-10.114641,217.262014,9.417654,-10.057703,0.000000,0.000000,
304713378,217.606741,25.510440,3,0.256226,0.155457,-0.284973,-0.910461,0.139723,0.080284,-0.213974,0.010485,-0.229175,-9.932151,217.428383,9.348859,-9.975356,0.000000,0.000000,
304722816,217.401052,25.510440,3,0.262268,0.154297,-0.287415,-0.908203,0.071209,-0.029675,-0.223420,0.031969,-0.110265,-9.998955,217.511051,9.251321,-9.990834,0.000000,0.000000,
304732378,218.018118,25.510440,3,0.268250,0.153076,-0.289917,-0.905823,0.118422,0.401015,-0.554899,0.306063,-0.588205,-10.002033,217.693971,9.213504,-9.998177,0.000000,0.000000,
304743496,218.429006,25.510440,3,0.274231,0.151794,-0.292419,-0.903442,0.062192,0.058961,-0.112705,0.028697,-0.124878,-9.854127,217.933450,9.186969,-9.903696,0.000000,0.000000,
304752750,218.429006,25.510440,3,0.280151,0.150574,-0.294922,-0.901062,0.134257,0.202781,-0.518979,0.205328,-0.450239,-10.090805,218.110841,9.150745,-10.026413,0.000000,0.000000,
304762590,217.720358,25.514976,3,0.286011,0.149231,-0.297424,-0.898621,0.137064,0.390546,-0.446190,0.256015,-0.542931,-9.915939,218.127320,9.008810,-9.953958,0.000000,0.000000,
304773419,217.833456,25.519512,3,0.291809,0.147888,-0.299866,-0.896118,0.052268,-0.039518,-0.202648,0.034630,-0.098755,-9.985539,218.169262,8.867400,-9.974672,0.000000,0.000000,
304782886,218.110189,25.505904,3,0.297607,0.146545,-0.302368,-0.893616,0.193161,0.350133,-0.718922,0.326049,-0.669473,-10.154267,218.241683,8.764409,-10.092463,0.000000,0.000000,
304792745,219.138754,25.505904,3,0.303345,0.145203,-0.304871,-0.891052,0.101667,0.024005,0.037041,-0.085066,-0.056232,-9.761152,218.495551,8.770166,-9.875163,0.000000,0.000000,
304803859,218.635793,25.510440,3,0.308960,0.143799,-0.307373,-0.888489,0.155305,0.197799,-0.597527,0.240399,-0.493693,-10.139926,218.618653,8.673492,-10.048812,0.000000,0.000000,
304813204,218.338003,25.514976,3,0.314575,0.142334,-0.309875,-0.885864,0.136388,0.384097,-0.367005,0.239657,-0.488893,-9.844766,218.646711,8.549089,-9.914986,0.000000,0.000000,
304822939,218.521597,25.505904,3,0.320129,0.140869,-0.312439,-0.883240,0.070825,-0.050793,-0.084040,-0.031793,-0.051255,-9.900241,218.706046,8.438446,-9.905316,0.000000,0.000000,
304834008,218.635793,25.510440,3,0.325623,0.139404,-0.314941,-0.880554,0.173584,0.316753,-0.529076,0.271309,-0.548139,-10.006436,218.785676,8.319765,-9.971638,0.000000,0.000000,
304843301,219.160329,25.514976,3,0.331116,0.137878,-0.317444,-0.877869,0.076377,0.145684,-0.238100,0.121584,-0.241285,-9.889582,218.932748,8.271239,-9.917818,0.000000,0.000000,
304852903,218.338003,25.514976,3,0.336487,0.136353,-0.319946,-0.875122,0.142253,0.069490,-0.321241,0.081137,-0.278762,-10.003916,218.900385,8.107488,-9.974289,0.000000,0.000000,
304864061,219.458669,25.510440,3,0.341858,0.134766,-0.322449,-0.872375,0.122880,0.303824,-0.320794,0.213730,-0.401323,-9.850719,219.094785,8.060570,-9.893241,0.000000,0.000000,
304873562,219.663869,25.510440,3,0.347229,0.133179,-0.324951,-0.869568,0.089721,-0.058843,-0.005025,-0.086071,-0.027109,-9.838046,219.277531,8.032859,-9.857038,0.000000,0.000000,
304883170,219.138754,25.505904,3,0.352539,0.131531,-0.327515,-0.866699,0.186387,0.159456,-0.516177,0.182627,-0.468634,-10.081296,219.328257,7.920140,-10.004122,0.000000,0.000000,
304894086,219.046682,25.510440,3,0.357788,0.129883,-0.330017,-0.863831,0.096872,0.117972,-0.157472,0.059796,-0.206030,-9.835981,219.361406,7.780823,-9.893845,0.000000,0.000000,
304903409,219.458669,25.510440,3,0.363037,0.128235,-0.332520,-0.860901,0.089766,-0.040950,-0.104812,-0.036696,-0.096408,-9.900761,219.451731,7.699722,-9.898381,0.000000,0.000000,
304913112,219.068258,25.519512,3,0.368225,0.126465,-0.335083,-0.857971,0.154827,0.424083,-0.518064,0.363905,-0.576650,-9.901781,219.454208,7.560121,-9.900613,0.000000,0.000000,
304924231,219.869619,25.510440,3,0.373352,0.124756,-0.337585,-0.855042,0.109799,-0.055607,-0.064582,-0.076647,-0.082331,-9.879742,219.615446,7.497164,-9.886922,0.000000,0.000000,
304933670,219.869619,25.510440,3,0.378479,0.122986,-0.340149,-0.851990,0.154291,0.188125,-0.478750,0.220773,-0.446668,-10.020312,219.733367,7.431861,-9.974407,0.000000,0.000000,
304944581,219.778066,25.514976,3,0.383545,0.121216,-0.342651,-0.848999,0.104198,0.013211,-0.070226,-0.034661,-0.124495,-9.833707,219.822250,7.329605,-9.882126,0.000000,0.000000,
304953834,219.458669,25.510440,3,0.388611,0.119385,-0.345215,-0.845947,0.143685,0.048215,-0.299832,0.071823,-0.274017,-9.972321,219.821534,7.195204,-9.941284,0.000000,0.000000,
304963527,219.778066,25.514976,3,0.393616,0.117554,-0.347717,-0.842834,0.158828,0.374927,-0.514033,0.355808,-0.541134,-9.908925,219.882676,7.094210,-9.920061,0.000000,0.000000,
304974265,219.962240,25.505904,3,0.398560,0.115662,-0.350281,-0.839722,0.069518,-0.045800,-0.025458,-0.064649,-0.044088,-9.842647,219.973186,6.997492,-9.869287,0.000000,0.000000,
304983716,219.755972,25.505904,3,0.403442,0.113770,-0.352783,-0.836548,0.189954,0.354477,-0.532470,0.341704,-0.566357,-9.925429,219.998201,6.878738,-9.906110,0.000000,0.000000,
304993512,220.373708,25.505904,3,0.408264,0.111877,-0.355347,-0.833374,0.180435,0.155088,-0.102876,0.022489,-0.257636,-9.749355,220.135401,6.825819,-9.803298,0.000000,0.000000,
305004661,220.076406,25.510440,3,0.413086,0.109985,-0.357849,-0.830200,0.124621,0.054653,-0.359052,0.121502,-0.303410,-10.001672,220.199824,6.707736,-9.933406,0.000000,0.000000,
305014135,220.167440,25.505904,3,0.417908,0.108093,-0.360352,-0.826904,0.167351,0.397014,-0.555322,0.404708,-0.565411,-9.910846,220.256863,6.610107,-9.918610,0.000000,0.000000,
305023720,219.984335,25.514976,3,0.422668,0.106140,-0.362915,-0.823669,0.088920,-0.049012,-0.005831,-0.084767,-0.055274,-9.828916,220.268757,6.484810,-9.859784,0.000000,0.000000,
305034657,221.196737,25.505904,3,0.427368,0.104126,-0.365417,-0.820374,0.138889,0.142182,-0.494346,0.236955,-0.416499,-10.034530,220.512843,6.480141,-9.974391,0.000000,0.000000,
305044025,220.785238,25.505904,3,0.432007,0.102173,-0.367981,-0.817017,0.111935,0.160689,-0.102284,0.081304,-0.195419,-9.745318,220.624146,6.420320,-9.824148,0.000000,0.000000,
305053912,220.990987,25.505904,3,0.436646,0.100159,-0.370483,-0.813660,0.088165,-0.021288,-0.106424,-0.014528,-0.119783,-9.868985,220.755805,6.364419,-9.853554,0.000000,0.000000,
305065052,220.693655,25.510440,3,0.441223,0.098083,-0.372986,-0.810303,0.207164,0.365283,-0.445169,0.323541,-0.519558,-9.819110,220.814456,6.247972,-9.830964,0.000000,0.000000,
305074435,220.487386,25.510440,3,0.445801,0.096008,-0.375488,-0.806885,0.138540,0.068997,-0.075401,-0.000642,-0.174133,-9.784514,220.811379,6.118302,-9.800500,0.000000,0.000000,
305083927,221.012563,25.514976,3,0.450256,0.093933,-0.377991,-0.803467,0.185288,0.148975,-0.387502,0.179620,-0.403327,-9.931700,220.906660,6.046974,-9.886549,0.000000,0.000000,
305095133,221.424612,25.514976,3,0.454773,0.091797,-0.380493,-0.799988,0.155159,0.392327,-0.367980,0.354013,-0.437936,-9.751239,221.070811,5.996138,-9.797802,0.000000,0.000000,
305104345,220.898885,25.510440,3,0.459167,0.089661,-0.382996,-0.796509,0.109630,-0.057219,-0.044786,-0.082671,-0.101159,-9.850591,221.093425,5.885489,-9.832425,0.000000,0.000000,
305114184,221.608297,25.505904,3,0.463562,0.087463,-0.385498,-0.793030,0.175184,0.297091,-0.527464,0.360090,-0.503916,-9.922346,221.247219,5.846357,-9.891400,0.000000,0.000000,
305125181,221.538290,25.519512,3,0.467896,0.085327,-0.388000,-0.789490,0.080157,0.042043,0.075190,-0.058223,-0.042129,-9.704378,221.365443,5.772532,-9.768737,0.000000,0.000000,
305134618,222.019857,25.505904,3,0.472168,0.083130,-0.390442,-0.785950,0.147979,-0.015609,-0.235606,0.029945,-0.246477,-9.935106,221.542046,5.754258,-9.877850,0.000000,0.000000,
305144200,221.309896,25.510440,3,0.476379,0.080872,-0.392944,-0.782349,0.143460,0.276918,-0.250064,0.235966,-0.313050,-9.738333,221.553289,5.634510,-9.786346,0.000000,0.000000,
305155346,221.927755,25.510440,3,0.480591,0.078735,-0.395447,-0.778809,0.124440,-0.016920,0.040097,-0.102151,-0.074527,-9.751399,221.685611,5.568118,-9.763424,0.000000,0.000000,
305164569,221.722494,25.510440,3,0.484741,0.076477,-0.397888,-0.775146,0.155790,0.380884,-0.347378,0.353099,-0.402364,-9.723447,221.743462,5.482719,-9.737204,0.000000,0.000000,
305174456,220.990987,25.505904,3,0.488831,0.074219,-0.400330,-0.771545,0.084288,0.011587,-0.030464,-0.018255,-0.090579,-9.784172,221.656345,5.300546,-9.768012,0.000000,0.000000,
305185209,221.401998,25.505904,3,0.492859,0.071960,-0.402771,-0.767883,0.240970,0.185110,-0.411030,0.216333,-0.455275,-9.879873,221.665139,5.165517,-9.841379,0.000000,0.000000,
305194719,221.424612,25.514976,3,0.496887,0.069641,-0.405273,-0.764221,0.163454,0.279348,-0.299723,0.267169,-0.352855,-9.760327,221.668781,5.045065,-9.788221,0.000000,0.000000,
305205617,221.608297,25.505904,3,0.500916,0.067322,-0.407715,-0.760498,0.125370,-0.008052,-0.068782,-0.034461,-0.136205,-9.812075,221.711850,4.931265,-9.803866,0.000000,0.000000,
305215054,221.722494,25.510440,3,0.504822,0.065002,-0.410156,-0.756775,0.170214,0.354465,-0.512505,0.428432,-0.481063,-9.839594,221.759940,4.839626,-9.827299,0.000000,0.000000,
305224729,221.927755,25.510440,3,0.508728,0.062622,-0.412598,-0.753052,0.145443,-0.039795,0.061336,-0.124120,-0.080848,-9.739728,221.837726,4.764533,-9.769863,0.000000,0.000000,
305235755,221.835653,25.514976,3,0.512573,0.060303,-0.415039,-0.749268,0.220306,0.211210,-0.471862,0.289557,-0.473765,-9.884187,221.889266,4.655367,-9.844845,0.000000,0.000000,
305244910,222.318258,25.501369,3,0.516357,0.057922,-0.417480,-0.745422,0.174417,0.254855,-0.248705,0.230852,-0.313244,-9.730305,222.011827,4.615892,-9.769720,0.000000,0.000000,
305254778,221.814596,25.505904,3,0.520142,0.055542,-0.419983,-0.741638,0.164676,-0.044620,0.100760,-0.161638,-0.074767,-9.703895,222.019994,4.497767,-9.726548,0.000000,0.000000,
305265624,222.041433,25.514976,3,0.523865,0.053162,-0.422424,-0.737793,0.168951,0.377352,-0.553710,0.493243,-0.488468,-9.834846,222.072208,4.393564,-9.797577,0.000000,0.000000,
305275101,222.339834,25.510440,3,0.527527,0.050720,-0.424866,-0.733948,0.147077,0.206644,-0.106653,0.137334,-0.198990,-9.673332,222.163536,4.332718,-9.716087,0.000000,0.000000,
305284888,222.339834,25.510440,3,0.531128,0.048340,-0.427307,-0.730042,0.162664,0.040971,-0.230715,0.073439,-0.270169,-9.851011,222.238462,4.256347,-9.804579,0.000000,0.000000,
305296017,222.111959,25.501369,3,0.534729,0.045898,-0.429749,-0.726135,0.145145,0.258062,-0.258349,0.262918,-0.283329,-9.733215,222.261539,4.133668,-9.757774,0.000000,0.000000,
305305531,222.247732,25.514976,3,0.538269,0.043457,-0.432190,-0.722229,0.124862,-0.012889,-0.009394,-0.062186,-0.108643,-9.763822,222.297838,4.039175,-9.761741,0.000000,0.000000,
305315148,222.339834,25.510440,3,0.541748,0.041016,-0.434570,-0.718262,0.175164,0.146550,-0.347825,0.222258,-0.344756,-9.840130,222.344087,3.949335,-9.813154,0.000000,0.000000,
305326037,222.865652,25.514976,3,0.545227,0.038513,-0.437012,-0.714294,0.179635,0.164919,-0.103682,0.106480,-0.212849,-9.678936,222.484196,3.903011,-9.725123,0.000000,0.000000,
305335404,222.637197,25.505904,3,0.548645,0.036011,-0.439453,-0.710327,0.187493,-0.067652,0.004028,-0.131630,-0.152762,-9.763054,222.548981,3.829184,-9.750000,0.000000,0.000000,
305345098,222.750906,25.510440,3,0.552002,0.033508,-0.441895,-0.706360,0.154235,0.418439,-0.448777,0.491351,-0.393224,-9.724405,222.623438,3.757864,-9.733212,0.000000,0.000000,
305356200,222.041433,25.514976,3,0.555298,0.031006,-0.444336,-0.702332,0.145443,-0.039795,0.061336,-0.115815,-0.079992,-9.720725,222.555573,3.584164,-9.725024,0.000000,0.000000,
305365695,222.750906,25.510440,3,0.558594,0.028442,-0.446777,-0.698242,0.216936,0.248922,-0.455291,0.347007,-0.439544,-9.810467,222.625747,3.513532,-9.781062,0.000000,0.000000,
305375476,222.935629,25.501369,3,0.561829,0.025879,-0.449219,-0.694153,0.166077,0.349941,-0.217175,0.316232,-0.253554,-9.621645,222.717674,3.454769,-9.676504,0.000000,0.000000,
305386153,222.957754,25.510440,3,0.565063,0.023315,-0.451660,-0.690063,0.109799,-0.055607,-0.064582,-0.052015,-0.133844,-9.820008,222.798952,3.377218,-9.770623,0.000000,0.000000,
305395575,223.482534,25.514976,3,0.568176,0.020752,-0.454102,-0.685913,0.159636,0.445677,-0.313513,0.451030,-0.288859,-9.621120,222.958361,3.365206,-9.672565,0.000000,0.000000,
305405385,223.140920,25.501369,3,0.571289,0.018188,-0.456543,-0.681824,0.184924,-0.039771,0.021406,-0.101170,-0.136703,-9.719831,223.025072,3.290577,-9.703565,0.000000,0.000000,
305416532,223.460958,25.505904,3,0.574341,0.015564,-0.458984,-0.677673,0.244538,0.380132,-0.427323,0.439492,-0.417233,-9.675516,223.142784,3.232030,-9.685167,0.000000,0.000000,
305425982,222.957754,25.510440,3,0.577332,0.012939,-0.461426,-0.673523,0.152803,0.121546,-0.021019,0.049823,-0.120308,-9.655266,223.138235,3.119401,-9.665556,0.000000,0.000000,
305435700,223.368826,25.510440,3,0.580261,0.010315,-0.463867,-0.669312,0.225524,0.121275,-0.326839,0.201494,-0.363912,-9.788654,223.211251,3.050584,-9.746291,0.000000,0.000000,
305446578,222.843008,25.505904,3,0.583130,0.007690,-0.466309,-0.665161,0.161913,0.432464,-0.391086,0.497079,-0.318010,-9.666080,223.174903,2.903630,-9.693685,0.000000,0.000000,
305455812,222.637197,25.505904,3,0.585999,0.005066,-0.468750,-0.660950,0.183323,-0.020109,0.019793,-0.084425,-0.130045,-9.700953,223.100602,2.752037,-9.698454,0.000000,0.000000,
305466775,223.070913,25.514976,3,0.588806,0.002441,-0.471252,-0.656677,0.256248,0.247334,-0.475425,0.382755,-0.456613,-9.770044,223.124622,2.641593,-9.745408,0.000000,0.000000,
305475972,223.163015,25.510440,3,0.591553,-0.000244,-0.473694,-0.652466,0.200801,0.108676,0.087437,-0.024278,-0.086474,-9.565186,223.155712,2.558136,-9.627206,0.000000,0.000000,
305485712,223.368826,25.510440,3,0.594238,-0.002930,-0.476135,-0.648193,0.187792,-0.047340,-0.125453,-0.021825,-0.227103,-9.782370,223.220041,2.487037,-9.728972,0.000000,0.000000,
305496872,223.255148,25.505904,3,0.596863,-0.005615,-0.478577,-0.643921,0.197517,0.465363,-0.355056,0.507072,-0.291900,-9.591426,223.253779,2.383893,-9.638759,0.000000,0.000000,
305506320,223.163015,25.510440,3,0.599426,-0.008301,-0.481079,-0.639648,0.180877,-0.008509,0.117162,-0.121150,-0.060750,-9.634324,223.258870,2.282385,-9.635851,0.000000,0.000000,
305515863,223.070913,25.514976,3,0.601929,-0.011047,-0.483582,-0.635376,0.214490,0.260522,-0.357922,0.344746,-0.335582,-9.700886,223.245025,2.168375,-9.678506,0.000000,0.000000,
305526783,223.276723,25.514976,3,0.604431,-0.013733,-0.486023,-0.631104,0.174417,0.254855,-0.248705,0.294795,-0.235958,-9.677558,223.274062,2.066277,-9.677884,0.000000,0.000000,
305536108,223.574117,25.510440,3,0.606812,-0.016479,-0.488464,-0.626770,0.213610,-0.013641,-0.089339,-0.011538,-0.220950,-9.720023,223.349093,2.010141,-9.705521,0.000000,0.000000,
305545972,223.666769,25.505904,3,0.609192,-0.019165,-0.490967,-0.622498,0.267902,0.344851,-0.493554,0.485765,-0.431488,-9.688702,223.427905,1.950586,-9.694489,0.000000,0.000000,
305557114,223.574117,25.510440,3,0.611511,-0.021912,-0.493408,-0.618103,0.194371,-0.043796,0.060914,-0.113359,-0.114057,-9.669246,223.476421,1.859384,-9.677932,0.000000,0.000000,
305566562,224.170004,25.501369,3,0.613831,-0.024719,-0.495911,-0.613770,0.186212,0.122863,-0.306705,0.226407,-0.305630,-9.765450,223.623478,1.847293,-9.735329,0.000000,0.000000,
305576163,223.574117,25.510440,3,0.616028,-0.027527,-0.498352,-0.609375,0.254889,0.199454,-0.127379,0.170449,-0.214528,-9.587935,223.631538,1.749619,-9.638658,0.000000,0.000000,
305587238,223.780447,25.510440,3,0.618225,-0.030334,-0.500854,-0.604980,0.212680,-0.022509,0.019540,-0.080275,-0.141616,-9.660894,223.678208,1.659491,-9.653242,0.000000,0.000000,
305596468,223.070913,25.514976,3,0.620361,-0.033142,-0.503357,-0.600586,0.224504,0.394788,-0.467553,0.529762,-0.350517,-9.655357,223.579370,1.500205,-9.654632,0.000000,0.000000,
305606360,224.078390,25.505904,3,0.622437,-0.035950,-0.505859,-0.596191,0.181737,0.115114,0.028218,0.034816,-0.077160,-9.598364,223.687149,1.461926,-9.617725,0.000000,0.000000,
305617152,223.872579,25.505904,3,0.624451,-0.038757,-0.508301,-0.591736,0.264870,0.385787,-0.516575,0.543746,-0.403050,-9.649876,223.737086,1.378817,-9.638811,0.000000,0.000000,
305626669,223.986288,25.510440,3,0.626404,-0.041626,-0.510803,-0.587341,0.257921,0.158518,-0.104358,0.128546,-0.197556,-9.584122,223.796448,1.316302,-9.602941,0.000000,0.000000,
305636377,223.666769,25.505904,3,0.628296,-0.044495,-0.513306,-0.582886,0.271401,0.007670,-0.170644,0.044279,-0.292182,-9.685559,223.784493,1.207513,-9.657128,0.000000,0.000000,
305647518,223.688345,25.514976,3,0.630188,-0.047363,-0.515808,-0.578430,0.265879,0.360482,-0.445676,0.494055,-0.352435,-9.624974,223.779344,1.089385,-9.636040,0.000000,0.000000,
305656709,224.078390,25.505904,3,0.632019,-0.050232,-0.518250,-0.573975,0.231745,-0.028947,0.078759,-0.119339,-0.107043,-9.615918,223.844963,1.035603,-9.622841,0.000000,0.000000,
305666573,223.894155,25.514976,3,0.633789,-0.053162,-0.520752,-0.569458,0.227124,0.101612,-0.325227,0.231974,-0.332505,-9.727294,223.863908,0.945247,-9.691348,0.000000,0.000000,
305677391,223.368826,25.510440,3,0.635498,-0.056091,-0.523254,-0.564941,0.242982,0.099519,-0.079556,0.083111,-0.173965,-9.603697,223.780868,0.785219,-9.633863,0.000000,0.000000,
305686860,223.666769,25.505904,3,0.637207,-0.059021,-0.525757,-0.560425,0.196141,-0.061846,0.042730,-0.114066,-0.123116,-9.664665,223.766500,0.680560,-9.654065,0.000000,0.000000,
305697770,224.490041,25.505904,3,0.638855,-0.062012,-0.528198,-0.555908,0.339995,0.401623,-0.430587,0.507831,-0.351766,-9.528441,223.908888,0.658839,-9.571670,0.000000,0.000000,
