Code compiled on Mar 18 2026 at 15:50:09
﻿Simulation Mode (T/F),F
Airbrakes Enabled (T/F),T
Log File Name,RF
Sim File Name (if applicable),Sim
Burnout Mass (kg),0.594
Air Density (kg/m^3),1.19
Rocket CD,0.525
Airbrake CD,0.725
Rocket Area (m^2),0.00243
Kalman Model Y STD,1
Kalman Model V STD,0.4
Kalman Model A STD,5
Kalman Measurement Y STD,5
Kalman Measurement A STD,2
Target Apogee (m),228.6
Launch Acceleration Threshold (m/s^2),40
Coast Lockout (s),1.75
KP (1/s),0.24
Altimeter Lockout (s),60
Control Max Velocity (dep/s),2

Calibration point: 247.757262
Time (us),Altitude AGL (m),Temperature (deg C),Mode,IMU Quat W,IMU Quat X,IMU Quat Y,IMU Quat Z,IMU Raw Local Acceleration X,IMU Raw Local Acceleration Y,IMU Raw Local Acceleration Z,IMU Global Acceleration x,IMU Global Acceleration y,IMU Global Acceleration z,State Estimation y,State Estimation v,State Estimation a,Commanded servo deployment,Real servo deployment,
182588427,0.233445,25.555797,1,0.606445,-0.007568,0.006104,-0.795105,-0.320637,-3.597798,48.559592,-2.446936,1.231426,38.815140,0.217812,0.545347,25.499924,0.000000,0.000000,
182598281,-0.388106,25.546726,2,0.606445,-0.007568,0.006104,-0.795105,-1.071476,-8.394963,93.774193,-5.995305,3.200633,84.108311,0.116367,1.296078,63.939336,0.000000,0.000000,
182610285,0.014589,25.546726,2,0.606445,-0.007568,0.006104,-0.795105,-0.270104,-9.080971,100.375313,-6.740426,2.605710,90.724851,0.120474,2.352027,81.507121,0.000000,0.000000,
182619111,-0.094588,25.542190,2,0.606628,-0.007751,0.006165,-0.794922,-0.437609,-8.280125,103.191309,-5.835906,2.561475,93.526239,0.105210,3.161130,89.390085,0.000000,0.000000,
182629792,-0.001891,25.537655,2,0.606750,-0.007935,0.006165,-0.794800,0.428131,-6.372605,102.360521,-4.202229,1.248832,92.663887,0.124328,4.136897,91.537269,0.000000,0.000000,
182638974,0.510499,25.542190,2,0.608032,-0.007751,0.006287,-0.793884,0.269428,-8.460747,104.325836,-6.157654,1.881544,94.668594,0.238824,5.054449,93.591009,0.000000,0.000000,
182648718,0.216966,25.546726,2,0.609253,-0.007446,0.006531,-0.792908,-0.428400,-9.352481,105.845995,-6.835057,2.679171,96.203412,0.288652,5.989054,95.304403,0.000000,0.000000,
182659600,0.417802,25.546726,2,0.610840,-0.007141,0.006653,-0.791687,-10.172174,-6.675055,105.114995,-1.841377,11.343288,95.389482,0.383694,7.042629,95.360204,0.000000,0.000000,
182668956,-0.295424,25.542190,2,0.613159,-0.006775,0.006958,-0.789856,3.592604,-6.580597,106.909575,-5.216635,-2.135101,97.222540,0.326528,7.869189,96.581649,0.000000,0.000000,
182678650,0.804567,25.537655,2,0.615417,-0.006470,0.007202,-0.788147,0.114320,-15.742747,108.709145,-13.235444,3.336490,99.191351,0.497218,8.889087,98.293273,0.000000,0.000000,
182689713,0.308625,25.542190,2,0.617432,-0.006531,0.007385,-0.786560,-1.204902,-10.237691,108.664340,-7.552480,3.214562,99.041484,0.566260,9.961488,98.784001,0.000000,0.000000,
182699169,0.711870,25.542190,2,0.620239,-0.006653,0.007507,-0.784302,-0.566718,-5.342105,105.927059,-2.980809,1.409238,96.210257,0.691971,10.888384,97.095963,0.000000,0.000000,
182708919,1.097596,25.533119,2,0.621948,-0.006531,0.007385,-0.783020,-1.886324,-6.226945,107.397271,-3.555398,2.877581,97.695188,0.878913,11.890851,97.488978,0.000000,0.000000,
182719648,0.913743,25.542190,2,0.622498,-0.006348,0.007080,-0.782532,-1.625284,-7.681386,107.720763,-5.103975,2.968385,98.043627,1.018694,12.946848,97.852755,0.000000,0.000000,
182729142,1.114595,25.542190,2,0.622742,-0.006470,0.006653,-0.782349,0.210320,-10.693621,108.188958,-8.477251,1.930796,98.566541,1.164092,13.894788,98.320906,0.000000,0.000000,
182739951,1.005418,25.537655,2,0.622986,-0.006592,0.006348,-0.782166,-2.509421,-7.624530,108.034406,-4.908633,3.963867,98.347123,1.290231,14.938290,98.338100,0.000000,0.000000,
182749387,1.811433,25.537655,2,0.622864,-0.006470,0.006287,-0.782288,0.608637,-8.270956,107.813981,-6.266010,1.067075,98.144347,1.533431,15.929409,98.211026,0.000000,0.000000,
182758991,1.811433,25.537655,2,0.623047,-0.006653,0.006287,-0.782104,1.020779,-8.696179,106.673291,-6.765337,0.780343,97.014158,1.743013,16.895329,97.426039,0.000000,0.000000,
182770070,2.324434,25.542190,2,0.623657,-0.006958,0.006409,-0.781677,-1.162238,-8.724251,108.498348,-6.204676,2.918487,98.837034,2.045486,18.060754,98.351469,0.000000,0.000000,
182779346,1.811433,25.537655,2,0.624756,-0.007019,0.006470,-0.780762,0.267935,-11.775848,107.727717,-9.500907,2.170329,98.129432,2.173275,18.941685,98.205841,0.000000,0.000000,
182789210,2.710237,25.533119,2,0.626953,-0.007080,0.006592,-0.778992,0.688029,-9.627629,106.775646,-7.498929,1.231904,97.140244,2.465568,19.965859,97.506951,0.000000,0.000000,
182799989,2.525316,25.542190,2,0.630615,-0.007080,0.006836,-0.776062,0.167883,-6.986512,108.087369,-4.754484,1.080926,98.401482,2.697752,21.033542,98.093646,0.000000,0.000000,
182809455,2.911638,25.533119,2,0.632996,-0.007141,0.007202,-0.774109,-0.183364,-11.893593,107.370966,-9.461711,2.307884,97.786826,2.941383,21.985655,97.892413,0.000000,0.000000,
182819147,3.020845,25.537655,2,0.635376,-0.007263,0.007080,-0.772156,-0.447994,-9.116413,107.124156,-6.700455,2.012220,97.483080,3.173940,22.940192,97.623945,0.000000,0.000000,
182830123,3.331971,25.542190,2,0.637390,-0.007324,0.007080,-0.770447,-0.014005,-7.786327,107.144320,-5.476381,1.302960,97.477838,3.461265,24.029431,97.528119,0.000000,0.000000,
182839577,4.120668,25.533119,2,0.639648,-0.007263,0.007080,-0.768616,-0.511780,-8.467428,107.788670,-6.060052,1.870514,98.134388,3.816673,25.039260,97.925755,0.000000,0.000000,
182849493,3.515870,25.533119,2,0.642456,-0.007080,0.007080,-0.766296,0.104810,-8.209486,106.745213,-5.978038,1.136201,97.085915,4.013246,25.965151,97.374929,0.000000,0.000000,
182860253,5.312822,25.524047,2,0.644958,-0.006775,0.007385,-0.764160,0.083120,-8.001073,105.764889,-5.804743,0.985595,96.102105,4.542142,27.158388,96.540129,0.000000,0.000000,
182869735,4.431825,25.537655,2,0.647461,-0.006348,0.007996,-0.762024,-0.331712,-8.291085,105.225324,-6.028287,1.256752,95.570965,4.783195,28.050612,95.904484,0.000000,0.000000,
182879528,5.440080,25.537655,2,0.650024,-0.005798,0.008789,-0.759827,-0.059312,-8.293828,105.221345,-6.057161,0.736098,95.569405,5.185729,29.066823,95.684719,0.000000,0.000000,
182890573,6.136689,25.533119,2,0.652588,-0.005127,0.009766,-0.757629,0.158413,-7.767276,104.024069,-5.568619,0.158922,94.362555,5.691017,30.225322,94.817557,0.000000,0.000000,
182899966,6.043947,25.537655,2,0.655212,-0.004395,0.010986,-0.755371,-0.128770,-8.210048,104.861574,-5.910128,0.157509,95.214262,6.045417,31.163585,95.077745,0.000000,0.000000,
182909715,7.145112,25.533119,2,0.657776,-0.003540,0.012329,-0.753113,0.217573,-7.946294,103.664534,-5.674047,-0.582350,94.009650,6.560009,32.214347,94.377219,0.000000,0.000000,
182920760,7.364122,25.542190,2,0.660339,-0.002502,0.013855,-0.750793,0.222526,-7.790440,103.769436,-5.469848,-1.040756,94.109189,7.072509,33.351512,94.201430,0.000000,0.000000,
182930098,7.456376,25.537655,2,0.662964,-0.001404,0.015564,-0.748474,0.055544,-8.104802,103.041307,-5.713211,-1.285427,93.389278,7.460054,34.270709,93.668766,0.000000,0.000000,
182939810,8.758180,25.533119,2,0.665649,-0.000244,0.017334,-0.746094,0.229577,-7.831812,102.259005,-5.414630,-1.948900,92.591793,8.040764,35.327926,92.962419,0.000000,0.000000,
182950620,9.657594,25.528583,2,0.668335,0.001038,0.019226,-0.743652,0.416984,-7.532229,101.729853,-5.080430,-2.658298,92.051107,8.731443,36.518852,92.364724,0.000000,0.000000,
182960126,10.279725,25.537655,2,0.671021,0.002380,0.021301,-0.741150,0.255900,-7.838876,101.846341,-5.278675,-3.017138,92.168391,9.373361,37.584954,92.235962,0.000000,0.000000,
182969967,10.279725,25.537655,2,0.673767,0.003662,0.023376,-0.738586,0.445172,-7.486576,100.909755,-4.860532,-3.742125,91.200998,9.917643,38.592371,91.557165,0.000000,0.000000,
182980733,10.682832,25.537655,2,0.676575,0.005005,0.025574,-0.735901,0.516893,-7.380962,100.732749,-4.653978,-4.372897,90.998903,10.481984,39.664679,91.191022,0.000000,0.000000,
182990210,12.296449,25.537655,2,0.679443,0.006348,0.027771,-0.733215,0.521735,-7.513255,99.859021,-4.694306,-4.880383,90.107862,11.202430,40.740488,90.480619,0.000000,0.000000,
183000895,12.498567,25.537655,2,0.682251,0.007629,0.029968,-0.730469,0.670366,-7.032346,98.342234,-4.140499,-5.523689,88.555426,11.885981,41.844035,89.217950,0.000000,0.000000,
183010352,13.599397,25.533119,2,0.685059,0.008972,0.032104,-0.727722,0.730787,-7.234250,98.023904,-4.237127,-6.074816,88.212464,12.607173,42.887591,88.558491,0.000000,0.000000,
183020114,14.608033,25.533119,2,0.687927,0.010193,0.034119,-0.724915,0.749554,-6.999052,96.794983,-3.919405,-6.528658,86.947034,13.405209,43.977997,87.501595,0.000000,0.000000,
183031195,15.029329,25.542190,2,0.690857,0.011414,0.036072,-0.721985,0.830021,-7.089432,97.105984,-3.881907,-7.113214,87.232545,14.202665,45.139868,87.325140,0.000000,0.000000,
183040669,16.626100,25.533119,2,0.693848,0.012573,0.037842,-0.719055,0.973195,-6.996182,96.771630,-3.693971,-7.682416,86.852895,15.089106,46.259506,87.015420,0.000000,0.000000,
183050359,17.029451,25.533119,2,0.696838,0.013611,0.039429,-0.716064,1.082762,-6.546245,95.434959,-3.194307,-8.099364,85.464633,15.905281,47.322164,85.998316,0.000000,0.000000,
183062138,17.635011,25.533119,2,0.699829,0.014648,0.040710,-0.712952,1.089132,-6.901615,95.031945,-3.495269,-8.459804,85.051991,16.793311,48.532304,85.377657,0.000000,0.000000,
183071020,18.644044,25.533119,2,0.702881,0.015564,0.041809,-0.709900,1.421522,-6.600138,93.271689,-3.197839,-8.936161,83.234313,17.575104,49.499383,83.971914,0.000000,0.000000,
183080636,19.763063,25.537655,2,0.705994,0.016418,0.042603,-0.706787,1.257803,-6.456602,92.397257,-3.045340,-8.955265,82.346170,18.465213,50.555255,82.905648,0.000000,0.000000,
183092357,20.259431,25.533119,2,0.709045,0.017212,0.043152,-0.703674,1.195014,-6.651659,92.473446,-3.237504,-9.137055,82.410972,19.400220,51.736229,82.581212,0.000000,0.000000,
183101277,21.892061,25.542190,2,0.712097,0.017883,0.043396,-0.700500,1.477308,-6.514476,91.700779,-3.123716,-9.497904,81.595732,20.332773,52.770963,81.934879,0.000000,0.000000,
183110732,21.984437,25.537655,2,0.715210,0.018494,0.043335,-0.697327,1.325631,-6.535493,90.928329,-3.210022,-9.395617,80.826984,21.145010,53.733825,81.208252,0.000000,0.000000,
183121696,23.177644,25.528583,2,0.718323,0.018921,0.042908,-0.694092,1.232959,-6.621579,89.826178,-3.402756,-9.254762,79.734422,22.120144,54.850554,80.241620,0.000000,0.000000,
183131108,23.691682,25.533119,2,0.721558,0.019287,0.042114,-0.690796,1.311770,-6.518203,89.197085,-3.416995,-9.263975,79.096249,22.934676,55.785011,79.490414,0.000000,0.000000,
183140858,24.903657,25.533119,2,0.724792,0.019470,0.041138,-0.687500,1.207517,-6.396572,89.001804,-3.406481,-9.086415,78.910238,23.851465,56.789709,79.109903,0.000000,0.000000,
183151749,25.013612,25.537655,2,0.728088,0.019592,0.039856,-0.684082,1.142309,-6.450729,87.837592,-3.627910,-8.839176,77.763479,24.692499,57.775369,78.226830,0.000000,0.000000,
183161233,26.115754,25.533119,2,0.731384,0.019531,0.038330,-0.680603,0.933540,-6.608634,87.726179,-3.938462,-8.492094,77.674097,25.510912,58.683964,77.864316,0.000000,0.000000,
183170836,26.721345,25.533119,2,0.734741,0.019348,0.036499,-0.677124,0.822903,-6.359634,85.986966,-3.918070,-8.033626,75.958195,26.304799,59.557841,76.614156,0.000000,0.000000,
183181900,27.033723,25.537655,2,0.738098,0.019104,0.034546,-0.673584,0.732719,-6.428808,85.266724,-4.180922,-7.688914,75.262235,27.105013,60.477579,75.727476,0.000000,0.000000,
183191215,27.933687,25.533119,2,0.741516,0.018677,0.032410,-0.669861,0.670144,-6.604360,85.223329,-4.542406,-7.393041,75.242784,27.827054,61.278479,75.409585,0.000000,0.000000,
183201083,29.641908,25.528583,2,0.744995,0.018127,0.030212,-0.666138,0.603418,-6.309260,84.177505,-4.456561,-6.958923,74.206669,28.775551,62.226867,74.620637,0.000000,0.000000,
183211801,30.173829,25.542190,2,0.748535,0.017517,0.028015,-0.662231,0.727868,-6.535135,83.614440,-4.837755,-6.807675,73.654796,29.708930,63.182620,73.987177,0.000000,0.000000,
183221304,31.588533,25.542190,2,0.752197,0.016968,0.025818,-0.658264,0.628221,-6.443276,82.006097,-4.954345,-6.348993,72.067550,30.665059,64.093044,72.728162,0.000000,0.000000,
183231034,32.489412,25.537655,2,0.755920,0.016296,0.023804,-0.653992,0.453433,-6.426593,81.270184,-5.105647,-5.905011,71.344507,31.633986,65.004160,71.820673,0.000000,0.000000,
183241994,32.581361,25.533119,2,0.759766,0.015747,0.021912,-0.649597,0.371437,-6.431304,80.937634,-5.261595,-5.601306,71.025124,32.528335,65.894997,71.298901,0.000000,0.000000,
183251353,33.591829,25.533119,2,0.763733,0.015137,0.020142,-0.645020,0.426459,-6.024110,79.585706,-4.981643,-5.334982,69.678189,33.347496,66.674569,70.235931,0.000000,0.000000,
183261221,35.521119,25.537655,2,0.767761,0.014587,0.018616,-0.640320,0.281809,-6.170199,79.029984,-5.241484,-5.036670,69.136340,34.416218,67.614839,69.514753,0.000000,0.000000,
183272000,35.319612,25.537655,2,0.771851,0.013977,0.017273,-0.635376,0.172215,-5.998572,77.641235,-5.166782,-4.696624,67.759722,35.318319,68.452736,68.363686,0.000000,0.000000,
183281591,36.017701,25.533119,2,0.776062,0.013428,0.016235,-0.630310,0.291347,-5.603921,76.613739,-4.788402,-4.595327,66.732768,36.109022,69.176282,67.294021,0.000000,0.000000,
183292381,37.543275,25.537655,2,0.780334,0.012939,0.015503,-0.625061,0.457896,-5.794160,76.282969,-4.936454,-4.722885,66.399796,37.128313,70.063498,66.707533,0.000000,0.000000,
183301762,38.738771,25.528583,2,0.784668,0.012451,0.015076,-0.619568,0.335851,-5.664618,75.300932,-4.804783,-4.513618,65.427993,38.090496,70.870828,65.868330,0.000000,0.000000,
183311582,40.062623,25.533119,2,0.789062,0.012146,0.015015,-0.614014,0.478734,-4.920362,74.008048,-3.997400,-4.445940,64.133787,39.159172,71.734753,64.730705,0.000000,0.000000,
183324257,40.264741,25.533119,2,0.793579,0.011902,0.015137,-0.608215,0.571374,-4.894649,72.893725,-3.877247,-4.543950,63.017964,40.280982,72.665898,63.607376,0.000000,0.000000,
183333107,41.992585,25.537655,2,0.798096,0.011841,0.015625,-0.602173,0.441819,-4.777519,71.834201,-3.705789,-4.441211,61.963898,41.247993,73.424936,62.529480,0.000000,0.000000,
183342082,42.784730,25.528583,2,0.802673,0.011780,0.016296,-0.596008,0.533681,-4.489614,71.897276,-3.277708,-4.563094,62.022229,42.197655,74.166364,62.196796,0.000000,0.000000,
183356652,43.813813,25.537655,2,0.807312,0.011963,0.017090,-0.589783,0.677555,-4.306213,69.756578,-2.960602,-4.721061,59.872243,43.588271,75.233090,60.672200,0.000000,0.000000,
183364947,44.825380,25.537655,2,0.811890,0.012390,0.017883,-0.583435,0.941004,-4.426275,69.064599,-2.891063,-5.148697,59.161732,44.447089,75.879381,59.681539,0.000000,0.000000,
183373644,46.131379,25.533119,2,0.816406,0.013000,0.018738,-0.577026,0.910225,-4.378239,68.274702,-2.755170,-5.267122,58.362667,45.425275,76.591879,58.816539,0.000000,0.000000,
183383539,46.757295,25.542190,2,0.820862,0.013794,0.019592,-0.570618,1.085555,-4.236424,66.844715,-2.494992,-5.522383,56.912505,46.435576,77.313142,57.567747,0.000000,0.000000,
183392605,47.346498,25.533119,2,0.825256,0.014893,0.020386,-0.564148,1.185965,-4.433467,66.427066,-2.578404,-5.867523,56.473299,47.309420,77.932356,56.849936,0.000000,0.000000,
183402194,48.358430,25.533119,2,0.829651,0.016235,0.021057,-0.557678,1.119430,-4.258782,66.020363,-2.406885,-5.970239,56.049075,48.255627,78.591423,56.324680,0.000000,0.000000,
183412986,49.977388,25.533119,2,0.833984,0.017639,0.021606,-0.551086,1.384558,-4.114512,65.060608,-2.160021,-6.342369,55.054481,49.429388,79.384645,55.491603,0.000000,0.000000,
183422304,51.487428,25.528583,2,0.838379,0.019226,0.021973,-0.544373,1.732887,-4.552479,63.076614,-2.452657,-6.967572,53.034759,50.556786,80.119663,53.880245,0.000000,0.000000,
183431992,51.799501,25.533119,2,0.842590,0.020813,0.022278,-0.537659,1.546029,-4.602364,62.218644,-2.575146,-6.999343,52.161485,51.568021,80.769144,52.752968,0.000000,0.000000,
183443053,52.720247,25.537655,2,0.846680,0.022522,0.022339,-0.531128,1.559376,-4.226774,60.584931,-2.286542,-6.981755,50.506422,52.680264,81.462061,51.279533,0.000000,0.000000,
183452486,53.824861,25.533119,2,0.850708,0.024231,0.022278,-0.524597,1.777748,-4.243062,59.737564,-2.244527,-7.343746,49.618682,53.665334,82.064811,50.190238,0.000000,0.000000,
183462231,55.757905,25.537655,2,0.854675,0.025818,0.021973,-0.518005,1.765351,-4.299114,58.307292,-2.356660,-7.443146,48.165568,54.859224,82.778667,48.862329,0.000000,0.000000,
183472987,55.555482,25.537655,2,0.858704,0.027222,0.021484,-0.511353,1.559034,-4.808028,57.389547,-2.965624,-7.592332,47.228242,55.882726,83.368264,47.790585,0.000000,0.000000,
183482431,56.476564,25.542190,2,0.862610,0.028503,0.020874,-0.504639,1.826513,-4.802344,55.753219,-2.885813,-7.845668,45.556753,56.783278,83.867971,46.325487,0.000000,0.000000,
183492087,57.673219,25.533119,2,0.866516,0.029724,0.020081,-0.497803,1.889872,-4.854004,54.429538,-2.951121,-7.954074,44.209911,57.761772,84.398763,44.937950,0.000000,0.000000,
183503082,59.202485,25.537655,2,0.870483,0.030762,0.019226,-0.490906,1.751687,-5.012128,52.242996,-3.214852,-7.862214,42.014619,58.962145,85.029416,43.020634,0.000000,0.000000,
183512680,60.215059,25.537655,2,0.874451,0.031677,0.018311,-0.483704,1.534642,-4.633946,51.045131,-3.033892,-7.475901,40.832040,60.014917,85.569128,41.585209,0.000000,0.000000,
183522512,61.228761,25.537655,2,0.878418,0.032288,0.017456,-0.476440,1.567015,-4.360148,47.443838,-2.803192,-7.158055,37.238793,61.085305,86.077650,38.734535,0.000000,0.000000,
183533353,62.942506,25.533119,2,0.882446,0.032532,0.016602,-0.468994,1.649151,-3.834080,43.673328,-2.311379,-6.684570,33.491985,62.368383,86.659798,35.296118,0.000000,0.000000,
183542726,63.144563,25.533119,2,0.886414,0.032471,0.015930,-0.461487,1.690967,-3.177211,36.108131,-1.695447,-5.807553,25.973454,63.326865,86.991900,29.181677,0.000000,0.000000,
183553702,64.656526,25.528583,2,0.890320,0.031921,0.015381,-0.453979,1.411635,-2.545933,31.892109,-1.283645,-4.886817,21.818839,64.532009,87.390236,24.352626,0.000000,0.000000,
183563133,65.466981,25.528583,2,0.894226,0.031189,0.014954,-0.446350,1.362581,-1.932827,25.423052,-0.751970,-3.995179,15.402906,65.531779,87.643534,18.482788,0.000000,0.000000,
183572864,65.891420,25.537655,2,0.898071,0.030212,0.014526,-0.438538,1.016503,-1.429557,21.179402,-0.508626,-3.087398,11.217529,66.452259,87.794786,13.717732,0.000000,0.000000,
183583775,66.407106,25.542190,2,0.901917,0.029114,0.014038,-0.430725,1.022454,-1.423102,15.664335,-0.458093,-2.691338,5.722518,67.401734,87.855157,8.473920,0.000000,0.000000,
183593225,67.919008,25.537655,2,0.905762,0.027954,0.013428,-0.422668,0.961681,-0.543518,12.338421,0.207174,-1.838179,2.449039,68.328778,87.937581,4.522390,0.000000,0.000000,
183602794,67.513673,25.537655,2,0.909668,0.026733,0.012634,-0.414307,0.659998,-0.503620,8.968187,0.062247,-1.352869,-0.893389,69.017268,87.833045,0.970346,0.000000,0.000000,
183613866,69.135652,25.537655,2,0.913635,0.025513,0.011719,-0.405579,0.423894,-0.458408,7.002138,-0.049693,-1.009131,-2.848954,70.011616,87.817145,-1.534613,0.000000,0.000000,
183623216,70.149690,25.537655,2,0.917542,0.024353,0.010803,-0.396790,0.499280,-0.199445,4.482679,0.199193,-0.732876,-5.354056,70.858176,87.781865,-4.039666,0.000000,0.000000,
183633082,70.426057,25.524047,2,0.921387,0.023376,0.009766,-0.387817,0.519980,-0.015664,3.405454,0.354645,-0.546242,-6.420408,71.642858,87.668114,-5.601122,0.000000,0.000000,
183643816,71.071565,25.542190,2,0.925171,0.022583,0.008850,-0.378723,0.302332,0.548863,1.238606,0.596399,0.127528,-8.554841,72.476193,87.510642,-7.538377,0.000000,0.000000,
183653327,72.362733,25.528583,2,0.928894,0.021973,0.008057,-0.369568,0.256991,0.524038,0.523809,0.542990,0.184797,-9.267007,73.286740,87.408567,-8.672132,0.000000,0.000000,
183663013,72.990236,25.537655,2,0.932556,0.021545,0.007385,-0.360229,0.365681,0.371023,-0.674178,0.517183,0.065512,-10.471156,74.077266,87.272441,-9.852057,0.000000,0.000000,
183674061,73.192476,25.537655,2,0.936218,0.021179,0.006897,-0.350769,0.331937,0.674029,-1.377132,0.694949,0.353243,-11.161138,74.874885,87.047038,-10.710646,0.000000,0.000000,
183683344,73.709047,25.542190,2,0.939758,0.021240,0.006531,-0.341125,0.240431,0.494289,-2.048829,0.509127,0.322900,-11.835059,75.463840,86.798629,-11.448119,0.000000,0.000000,
183693180,74.317933,25.542190,2,0.943237,0.021606,0.006287,-0.331299,0.275450,0.500304,-3.101644,0.535714,0.368076,-12.886842,76.102245,86.538439,-12.391737,0.000000,0.000000,
183703904,75.424836,25.537655,2,0.946716,0.022217,0.006165,-0.321289,0.602487,0.247300,-3.419838,0.636144,-0.007603,-13.222590,76.902542,86.318236,-12.936670,0.000000,0.000000,
183713544,75.701326,25.524047,2,0.950134,0.023315,0.006287,-0.310852,0.686323,-0.255180,-3.644695,0.408244,-0.424866,-13.469848,77.508851,86.046807,-13.286370,0.000000,0.000000,
183723230,76.144319,25.542190,2,0.953552,0.024475,0.006470,-0.300171,0.370102,0.066038,-4.403780,0.352915,0.075573,-14.207339,78.085964,85.749872,-13.890411,0.000000,0.000000,
183735161,77.344301,25.533119,2,0.956848,0.025696,0.006775,-0.289368,0.655342,-0.156690,-4.694361,0.464509,-0.261187,-14.517848,78.968904,85.491118,-14.301930,0.000000,0.000000,
183744172,77.767671,25.542190,2,0.960083,0.026917,0.007080,-0.278381,0.939134,-0.144916,-4.886489,0.726891,-0.345096,-14.717475,79.513287,85.213831,-14.574479,0.000000,0.000000,
183753691,78.377839,25.542190,2,0.963196,0.028137,0.007507,-0.267212,0.956477,-0.126031,-5.487938,0.751185,-0.273632,-15.319419,80.110948,84.934766,-15.063067,0.000000,0.000000,
183765402,79.170198,25.533119,2,0.966187,0.029236,0.007935,-0.256042,1.378695,-0.181714,-5.470165,1.100406,-0.523453,-15.310362,80.928151,84.646464,-15.225264,0.000000,0.000000,
183774214,79.687043,25.537655,2,0.969055,0.030212,0.008362,-0.244873,1.208204,-0.183254,-5.752463,0.966360,-0.368322,-15.587537,81.440668,84.360223,-15.462873,0.000000,0.000000,
183783720,80.591584,25.533119,2,0.971802,0.031006,0.008850,-0.233643,1.155111,-0.096730,-5.925951,0.968281,-0.227952,-15.756021,82.082831,84.111524,-15.655143,0.000000,0.000000,
183794784,80.997957,25.533119,2,0.974426,0.031677,0.009277,-0.222351,1.056313,0.150611,-5.886042,0.990778,0.072417,-15.699439,82.809194,83.812686,-15.684200,0.000000,0.000000,
183804239,81.607301,25.533119,2,0.976929,0.032227,0.009583,-0.210999,1.476313,-0.132794,-6.399734,1.253867,-0.289879,-16.242304,83.375618,83.517345,-16.050248,0.000000,0.000000,
183813858,81.921327,25.537655,2,0.979248,0.032532,0.009766,-0.199707,1.290537,0.097250,-6.298062,1.184845,0.018884,-16.121248,83.905826,83.193160,-16.096820,0.000000,0.000000,
183824865,82.326692,25.537655,2,0.981506,0.032715,0.009827,-0.188416,1.128653,-0.199566,-6.182381,0.923275,-0.175095,-16.018083,84.524665,82.834545,-16.045185,0.000000,0.000000,
183834221,83.250184,25.542190,2,0.983582,0.032776,0.009766,-0.177185,1.717463,-0.098806,-6.465267,1.526482,-0.242335,-16.311481,85.060083,82.531837,-16.219846,0.000000,0.000000,
183844889,84.062623,25.542190,2,0.985535,0.032654,0.009521,-0.166016,1.318274,-0.036029,-6.120289,1.175344,-0.047963,-15.949748,85.752712,82.245916,-16.042702,0.000000,0.000000,
183854228,84.764039,25.537655,2,0.987366,0.032349,0.009033,-0.154968,1.347572,0.146285,-6.479960,1.276545,0.168667,-16.295451,86.334821,81.977577,-16.208476,0.000000,0.000000,
183863997,85.465486,25.533119,2,0.989014,0.031921,0.008362,-0.143921,1.206746,0.243236,-6.692280,1.176195,0.334109,-16.494947,86.972059,81.715867,-16.396367,0.000000,0.000000,
183875092,85.484712,25.542190,2,0.990601,0.031372,0.007446,-0.132935,1.141931,0.392598,-6.438314,1.160214,0.501681,-16.227320,87.599005,81.364335,-16.285500,0.000000,0.000000,
183884535,85.964479,25.528583,2,0.992004,0.030701,0.006409,-0.122070,0.852257,0.534270,-6.691377,0.914042,0.732756,-16.462752,88.060224,81.016416,-16.401762,0.000000,0.000000,
183894240,86.611482,25.546726,2,0.993347,0.030090,0.005188,-0.111084,1.258878,0.245510,-6.300088,1.253832,0.351224,-16.093238,88.574377,80.691971,-16.199416,0.000000,0.000000,
183904990,87.110017,25.542190,2,0.994568,0.029480,0.003967,-0.099976,0.757594,0.467967,-6.497631,0.818994,0.701090,-16.266386,89.166503,80.348057,-16.243345,0.000000,0.000000,
183914462,88.014711,25.537655,2,0.995667,0.028870,0.002625,-0.088562,0.391840,0.717582,-6.807654,0.511826,1.039908,-16.565288,89.710976,80.056148,-16.454502,0.000000,0.000000,
183924168,88.531984,25.542190,2,0.996643,0.028259,0.001282,-0.076843,-0.021880,0.609832,-6.497402,0.075964,0.973852,-16.258239,90.266449,79.761901,-16.325784,0.000000,0.000000,
183935268,88.938691,25.542190,2,0.997498,0.027649,-0.000183,-0.065002,0.048483,0.985735,-6.775529,0.201214,1.344460,-16.515857,90.901993,79.425826,-16.450452,0.000000,0.000000,
183944723,90.341676,25.533119,2,0.998230,0.027100,-0.001526,-0.053040,-0.015207,1.012930,-6.570387,0.132847,1.363618,-16.310077,91.547223,79.205792,-16.358387,0.000000,0.000000,
183954422,89.954683,25.542190,2,0.998779,0.026550,-0.002747,-0.040955,-0.418361,1.062176,-6.528941,-0.277552,1.438154,-16.268296,92.016384,78.863201,-16.299305,0.000000,0.000000,
183965179,90.452852,25.537655,2,0.999268,0.026123,-0.003845,-0.028687,-0.000437,1.070316,-6.575393,0.121968,1.412898,-16.313570,92.570827,78.507393,-16.308668,0.000000,0.000000,
183974626,91.265870,25.537655,2,0.999512,0.025818,-0.004761,-0.016235,0.145579,0.652309,-6.238125,0.236421,0.974623,-15.997577,93.067272,78.203676,-16.104639,0.000000,0.000000,
183984381,90.878328,25.546726,2,0.999634,0.025757,-0.005432,-0.003601,-0.283959,0.847733,-6.532821,-0.201221,1.190036,-16.286379,93.419444,77.791846,-16.223845,0.000000,0.000000,
183995397,92.799623,25.542190,2,0.999634,0.025879,-0.005737,0.009033,-0.303451,0.815159,-6.352874,-0.241524,1.144229,-16.108851,94.159294,77.543031,-16.148427,0.000000,0.000000,
184004910,93.002778,25.542190,2,0.999390,0.026123,-0.005920,0.021729,0.352944,0.370053,-6.198167,0.409439,0.719321,-15.968956,94.679498,77.255505,-16.030722,0.000000,0.000000,
184014601,93.797273,25.533119,2,0.999023,0.026489,-0.005859,0.034546,0.440185,0.788518,-6.539077,0.451397,1.169633,-16.286213,95.262163,76.995377,-16.198294,0.000000,0.000000,
184025419,93.908479,25.537655,2,0.998474,0.026917,-0.005615,0.047424,0.086036,0.435820,-6.258498,0.103219,0.783339,-16.029317,95.840541,76.665961,-16.087472,0.000000,0.000000,
184034863,94.610048,25.533119,2,0.997803,0.027405,-0.005310,0.060364,0.118580,0.278535,-6.265564,0.136046,0.637730,-16.044292,96.333291,76.370481,-16.059157,0.000000,0.000000,
184044718,95.350618,25.546726,2,0.996887,0.027954,-0.004883,0.073364,0.354381,0.383759,-6.366434,0.334404,0.800362,-16.135355,96.901097,76.097943,-16.109137,0.000000,0.000000,
184055819,96.348024,25.537655,2,0.995850,0.028503,-0.004333,0.086365,0.614386,0.108615,-5.993674,0.609972,0.566810,-15.775036,97.641258,75.858958,-15.890013,0.000000,0.000000,
184065279,96.939027,25.528583,2,0.994629,0.029114,-0.003784,0.099426,0.490473,-0.132728,-6.119109,0.518138,0.326117,-15.906499,98.226543,75.625896,-15.900829,0.000000,0.000000,
184074918,97.365297,25.537655,2,0.993225,0.029663,-0.003174,0.112427,0.722454,-0.224944,-6.173993,0.759070,0.312446,-15.964053,98.793436,75.372088,-15.942299,0.000000,0.000000,
184085969,98.178315,25.537655,2,0.991638,0.030090,-0.002563,0.125305,0.976860,-0.067502,-5.866653,0.950026,0.540287,-15.644931,99.510164,75.128236,-15.747267,0.000000,0.000000,
184095221,98.400819,25.546726,2,0.989929,0.030518,-0.002014,0.138062,1.166915,0.170026,-6.233405,1.048028,0.868900,-15.994993,99.996657,74.849884,-15.909748,0.000000,0.000000,
184105090,99.103212,25.542190,2,0.988098,0.030762,-0.001465,0.150818,1.033901,0.016513,-6.238227,0.950584,0.709814,-16.011205,100.567241,74.588751,-15.976294,0.000000,0.000000,
184115845,99.621064,25.546726,2,0.986084,0.030823,-0.001038,0.163452,0.984136,0.093033,-5.939110,0.861437,0.773117,-15.708653,101.191274,74.310784,-15.800761,0.000000,0.000000,
184125347,100.119691,25.542190,2,0.983948,0.030762,-0.000793,0.175903,1.198648,0.270780,-6.311092,0.973396,1.053050,-16.066495,101.695852,74.032911,-15.975053,0.000000,0.000000,
184136139,100.323518,25.542190,2,0.981628,0.030701,-0.000854,0.188171,1.009940,0.011171,-5.913034,0.882097,0.752167,-15.685755,102.236751,73.705134,-15.785317,0.000000,0.000000,
184145674,101.451936,25.546726,2,0.979309,0.030518,-0.001099,0.200073,0.955255,0.197938,-5.888421,0.742108,0.912079,-15.650157,102.791743,73.464072,-15.696674,0.000000,0.000000,
184155237,101.451936,25.546726,2,0.976868,0.030334,-0.001587,0.211792,0.665459,0.401491,-5.832085,0.386758,0.995911,-15.584927,103.242651,73.159991,-15.623388,0.000000,0.000000,
184166347,102.653810,25.537655,2,0.974243,0.030212,-0.002258,0.223328,0.428874,0.092870,-5.851882,0.294224,0.628925,-15.625581,103.944169,72.918849,-15.624829,0.000000,0.000000,
184175578,103.171296,25.542190,2,0.971619,0.030090,-0.003113,0.234741,0.597587,0.350048,-6.200280,0.324819,0.966057,-15.954209,104.471763,72.680876,-15.840862,0.000000,0.000000,
184185427,103.466737,25.537655,2,0.968811,0.029907,-0.004089,0.246033,0.425476,0.592017,-5.785264,0.050053,1.076842,-15.529337,104.998656,72.412192,-15.636547,0.000000,0.000000,
184196111,103.689882,25.546726,2,0.965820,0.029663,-0.005005,0.257385,0.217705,0.657014,-5.895593,-0.170341,1.037457,-15.640827,105.526250,72.094805,-15.639359,0.000000,0.000000,
184205721,105.003846,25.542190,2,0.962769,0.029358,-0.005981,0.268677,0.668468,0.164413,-6.018815,0.466281,0.851423,-15.778260,106.120473,71.882364,-15.730463,0.000000,0.000000,
184215495,104.911256,25.546726,2,0.959534,0.029053,-0.006836,0.279968,0.217034,0.367377,-5.556917,-0.030078,0.768388,-15.318330,106.595892,71.593258,-15.460163,0.000000,0.000000,
184226569,105.706147,25.537655,2,0.956238,0.028748,-0.007568,0.291077,0.118321,0.933693,-5.976072,-0.433686,1.202391,-15.711456,107.221034,71.317264,-15.624982,0.000000,0.000000,
184235882,106.427766,25.542190,2,0.952759,0.028503,-0.008301,0.302185,0.496174,0.289209,-5.594039,0.232258,0.857874,-15.350523,107.735906,71.081528,-15.444977,0.000000,0.000000,
184245758,107.038087,25.542190,2,0.949219,0.028137,-0.008911,0.313293,0.191185,0.431345,-5.483207,-0.105371,0.795056,-15.242781,108.306485,70.850553,-15.312366,0.000000,0.000000,
184256865,107.649476,25.542190,2,0.945435,0.027771,-0.009399,0.324463,0.339865,0.703180,-5.871835,-0.167347,1.110636,-15.613539,108.969329,70.601737,-15.509898,0.000000,0.000000,
184266194,108.055848,25.542190,2,0.941589,0.027405,-0.009827,0.335571,0.374515,0.212901,-5.487510,0.156601,0.722171,-15.251315,109.456117,70.352407,-15.340306,0.000000,0.000000,
184275791,108.167726,25.546726,2,0.937561,0.027161,-0.010193,0.346680,0.612340,0.302494,-5.636258,0.264821,0.962990,-15.396252,109.889303,70.055902,-15.377004,0.000000,0.000000,
184286858,108.370698,25.546726,2,0.933350,0.026917,-0.010498,0.357788,0.400224,0.378441,-5.521349,0.041280,0.874403,-15.286351,110.379176,69.712788,-15.317554,0.000000,0.000000,
184296344,109.389131,25.546726,2,0.929016,0.026733,-0.010620,0.368896,0.691132,-0.017239,-5.247156,0.512735,0.774739,-15.017450,110.854280,69.454746,-15.120730,0.000000,0.000000,
184306085,109.888734,25.542190,2,0.924561,0.026489,-0.010742,0.379944,0.462939,0.324485,-5.517826,0.100901,0.872357,-15.282976,111.349277,69.194441,-15.227146,0.000000,0.000000,
184316827,110.295747,25.542190,2,0.919983,0.026367,-0.010803,0.390991,0.934012,0.015786,-5.420762,0.635708,0.998225,-15.179025,111.894326,68.910460,-15.195589,0.000000,0.000000,
184326311,110.906801,25.542190,2,0.915161,0.026184,-0.010864,0.402039,0.732898,0.050153,-5.164946,0.450631,0.869375,-14.930207,112.362202,68.654026,-15.021538,0.000000,0.000000,
184335952,111.017671,25.546726,2,0.910278,0.026001,-0.011047,0.413025,0.799362,0.262791,-5.576864,0.322699,1.097221,-15.329822,112.771629,68.351599,-15.223737,0.000000,0.000000,
184346931,111.944246,25.551262,2,0.905212,0.025818,-0.011169,0.423950,0.838324,0.188017,-5.178053,0.381360,1.059956,-14.932737,113.366196,68.093018,-15.032882,0.000000,0.000000,
184356465,113.258729,25.546726,3,0.900085,0.025513,-0.011414,0.434753,0.698298,0.275137,-5.389567,0.213024,1.026797,-15.146228,113.994566,67.936064,-15.107223,0.000000,0.000000,
184367443,113.554475,25.542190,3,0.894836,0.025208,-0.011780,0.445496,0.845059,0.395781,-5.470687,0.182710,1.226860,-15.216273,114.656972,67.718391,-15.178747,0.020000,0.020000,
184376755,113.665345,25.546726,3,0.889465,0.024963,-0.012268,0.456116,0.471451,0.276611,-5.179763,0.045227,0.840637,-14.946192,115.101088,67.463145,-15.026226,0.040000,0.040000,
184386471,113.869447,25.546726,3,0.883911,0.024780,-0.012817,0.466797,0.412903,0.237425,-5.588441,0.037339,0.794506,-15.358053,115.525171,67.171985,-15.243866,0.060000,0.060000,
184398207,114.776490,25.542190,3,0.878235,0.024719,-0.013367,0.477356,0.642782,0.569402,-5.255936,-0.150695,1.147194,-15.005166,116.172149,66.909949,-15.087313,0.082000,0.082000,
184407075,115.682557,25.537655,3,0.872437,0.024719,-0.013977,0.487854,0.690251,0.355555,-5.297842,0.055022,1.083361,-15.050596,116.673132,66.718602,-15.063234,0.100000,0.100000,
184416710,116.202272,25.542190,3,0.866516,0.024719,-0.014648,0.498291,0.359509,0.632425,-5.502549,-0.367379,0.947782,-15.263590,117.227075,66.517297,-15.194643,0.120000,0.120000,
184428414,116.517335,25.546726,3,0.860474,0.024719,-0.015259,0.508667,0.331050,0.423193,-5.052184,-0.221514,0.788054,-14.811671,117.871580,66.262514,-14.943466,0.142000,0.142000,
184437304,117.108979,25.537655,3,0.854309,0.024597,-0.015869,0.518921,0.451516,0.407634,-5.219853,-0.143050,0.898184,-14.973198,118.317109,66.039383,-14.962970,0.160000,0.160000,
184446797,117.628236,25.542190,3,0.847961,0.024597,-0.016418,0.529236,0.073913,0.372599,-5.122636,-0.297102,0.543170,-14.897133,118.814375,65.818729,-14.919793,0.180000,0.180000,
184457744,118.350679,25.546726,3,0.841431,0.024536,-0.017029,0.539551,0.337575,0.328264,-4.965743,-0.150694,0.741299,-14.728116,119.447175,65.604595,-14.794080,0.202000,0.202000,
184467119,117.758973,25.555797,3,0.834717,0.024536,-0.017578,0.549805,0.446304,0.532550,-5.554552,-0.301003,0.956596,-15.305476,119.745295,65.265007,-15.129496,0.220000,0.220000,
184476858,119.277375,25.551262,3,0.827942,0.024475,-0.018127,0.559998,0.333665,0.413205,-5.169348,-0.252462,0.782644,-14.930097,120.292615,65.066044,-14.998718,0.240000,0.240000,
184487780,119.777498,25.546726,3,0.820984,0.024353,-0.018616,0.570129,0.160337,0.321567,-5.414612,-0.233204,0.596356,-15.187299,120.905877,64.841547,-15.122405,0.262000,0.262000,
184497156,120.481324,25.542190,3,0.813843,0.024292,-0.019043,0.580261,0.413563,0.457102,-5.547764,-0.282677,0.881180,-15.303402,121.433625,64.648729,-15.241117,0.280000,0.280000,
184506902,120.796541,25.546726,3,0.806641,0.024231,-0.019348,0.590271,0.228890,0.414439,-5.315277,-0.318872,0.680724,-15.082955,121.943717,64.428815,-15.137386,0.300000,0.300000,
184517901,120.296907,25.551262,3,0.799316,0.024048,-0.019592,0.600098,0.012016,0.521666,-5.694382,-0.489714,0.511165,-15.473691,122.342976,64.071103,-15.357965,0.322000,0.322000,
184527265,121.427491,25.555797,3,0.791870,0.023926,-0.019775,0.609863,0.454892,0.404902,-5.426101,-0.267796,0.882701,-15.181187,122.770782,63.822642,-15.242026,0.342000,0.342000,
184537142,122.223146,25.546726,3,0.784363,0.023804,-0.019958,0.619507,0.182794,0.791726,-5.611380,-0.719810,0.715361,-15.377963,123.297869,63.608028,-15.331185,0.360000,0.360000,
184547849,122.834901,25.546726,3,0.776794,0.023621,-0.020020,0.628967,-0.181557,0.788946,-5.920069,-0.802755,0.359324,-15.709071,123.891290,63.387025,-15.579030,0.382000,0.382000,
184557456,122.743196,25.551262,3,0.769104,0.023376,-0.020020,0.638367,0.402873,0.634555,-5.808116,-0.545077,0.873665,-15.564373,124.284462,63.104487,-15.569422,0.402000,0.402000,
184568232,123.354463,25.551262,3,0.761292,0.023193,-0.019958,0.647705,0.681598,0.258548,-6.115322,-0.146245,1.089485,-15.858428,124.789302,62.826939,-15.758976,0.422000,0.422000,
184577726,123.853730,25.546726,3,0.753418,0.023010,-0.019775,0.656860,0.207082,0.355944,-6.116102,-0.331047,0.632894,-15.886822,125.209763,62.567185,-15.842830,0.442000,0.442000,
184587395,124.577638,25.551262,3,0.745300,0.022888,-0.019531,0.666016,0.310014,0.123747,-5.872276,-0.105181,0.679442,-15.639591,125.695638,62.343306,-15.709535,0.462000,0.462000,
184598350,125.393342,25.551262,3,0.737061,0.022766,-0.019226,0.675171,-0.220061,0.486895,-6.218703,-0.522867,0.203003,-16.013804,126.321009,62.133488,-15.909096,0.482000,0.482000,
184607639,125.393342,25.551262,3,0.728760,0.022583,-0.018860,0.684143,0.112505,0.608616,-6.381420,-0.631561,0.527706,-16.156251,126.723675,61.875450,-16.071202,0.502000,0.502000,
184617512,126.116853,25.555797,3,0.720337,0.022400,-0.018555,0.693054,0.028325,0.698504,-6.446582,-0.728711,0.435624,-16.235646,127.220163,61.645726,-16.179058,0.522000,0.522000,
184628257,126.912355,25.546726,3,0.711792,0.022156,-0.018311,0.701843,-0.405287,0.694069,-6.665597,-0.740527,-0.012781,-16.479829,127.823931,61.433601,-16.376325,0.542000,0.542000,
184637725,127.432649,25.551262,3,0.703186,0.021851,-0.018005,0.710449,0.195598,0.578208,-6.566936,-0.618237,0.561789,-16.347970,128.331561,61.233509,-16.357730,0.562000,0.562000,
184647511,127.228273,25.551262,3,0.694397,0.021606,-0.017578,0.719055,0.064346,0.326065,-6.789655,-0.379805,0.431973,-16.578968,128.723438,60.945003,-16.502838,0.582000,0.582000,
184658448,127.728761,25.546726,3,0.685608,0.021423,-0.017029,0.727478,-0.085458,0.494565,-6.801371,-0.547186,0.257985,-16.597983,129.202692,60.650110,-16.565245,0.602000,0.602000,
184667832,127.767885,25.564869,3,0.676758,0.021118,-0.016235,0.735718,-0.044946,-0.027132,-6.630773,-0.035579,0.305061,-16.427755,129.502335,60.329459,-16.475076,0.622000,0.622000,
184677664,128.063997,25.560333,3,0.667969,0.020813,-0.015381,0.743774,0.698020,-0.025243,-6.927467,-0.130364,1.050950,-16.685196,129.825389,60.000770,-16.612893,0.642000,0.642000,
184688461,128.748079,25.546726,3,0.659058,0.020386,-0.014465,0.751648,0.331102,0.045458,-6.829390,-0.168519,0.661135,-16.606047,130.270471,59.698531,-16.608407,0.662000,0.662000,
184698031,129.267915,25.551262,3,0.650146,0.019836,-0.013489,0.759460,0.672435,-0.207064,-6.813637,0.012244,1.017790,-16.575765,130.653219,59.423747,-16.587003,0.682000,0.682000,
184707765,129.972413,25.546726,3,0.641113,0.019165,-0.012573,0.767090,0.993035,-0.000563,-7.287947,-0.275034,1.301768,-17.035093,131.103354,59.179829,-16.880894,0.702000,0.702000,
184718842,130.379701,25.546726,3,0.632202,0.018494,-0.011719,0.774536,1.121154,-0.187618,-7.028610,-0.140097,1.432585,-16.773253,131.622304,58.911427,-16.810299,0.724000,0.724000,
184728349,130.696229,25.551262,3,0.623108,0.017639,-0.010864,0.781860,0.090218,0.083849,-7.172903,-0.211927,0.349547,-16.960863,132.008074,58.642307,-16.909053,0.744000,0.744000,
184738098,131.084260,25.542190,3,0.613953,0.016724,-0.010193,0.789062,1.140409,-0.370691,-7.298724,-0.025709,1.463244,-17.047856,132.405961,58.369868,-17.000094,0.762000,0.762000,
184748892,131.624025,25.555797,3,0.604736,0.015747,-0.009583,0.796204,1.087972,-0.746426,-6.922591,0.324713,1.492133,-16.677115,132.888571,58.100325,-16.788265,0.784000,0.784000,
184758341,132.123689,25.551262,3,0.595520,0.014832,-0.009033,0.803162,0.517423,0.075733,-7.739117,-0.327323,0.730274,-17.521912,133.293454,57.845757,-17.269445,0.802000,0.802000,
184769084,132.328676,25.551262,3,0.586548,0.013977,-0.008606,0.809753,0.742483,-0.012632,-7.361709,-0.315832,0.931978,-17.138713,133.733166,57.551071,-17.183706,0.824000,0.824000,
184778432,133.032319,25.546726,3,0.577820,0.013000,-0.008362,0.816040,0.852003,-0.216926,-7.700258,-0.171412,1.097576,-17.475162,134.139086,57.306249,-17.374866,0.844000,0.844000,
184788221,132.868531,25.564869,3,0.569031,0.011963,-0.008301,0.822205,0.544858,-0.123458,-7.821252,-0.157909,0.771711,-17.606063,134.461337,56.988585,-17.526506,0.864000,0.864000,
184799303,134.073030,25.555797,3,0.560303,0.010864,-0.008423,0.828125,1.252088,-0.162547,-7.465225,-0.374899,1.428249,-17.231213,135.019101,56.753252,-17.332834,0.884000,0.884000,
184808755,134.480470,25.555797,3,0.551514,0.009644,-0.008606,0.834106,0.348099,0.298707,-8.040127,-0.458549,0.407391,-17.832879,135.453792,56.521857,-17.660801,0.904000,0.904000,
184818434,134.869142,25.546726,3,0.542725,0.008362,-0.008911,0.839844,1.659298,0.473862,-8.301048,-1.143988,1.522762,-18.064829,135.890533,56.279892,-17.925792,0.922000,0.922000,
184829079,135.909486,25.555797,3,0.533875,0.007080,-0.009338,0.845459,1.321685,0.489288,-7.913761,-1.027211,1.172409,-17.689187,136.492190,56.093676,-17.770610,0.944000,0.944000,
184838658,135.889131,25.546726,3,0.524658,0.005859,-0.009888,0.851257,1.405198,0.417311,-8.538156,-0.996518,1.265390,-18.314312,136.915696,55.848498,-18.127210,0.964000,0.964000,
184848477,136.409364,25.551262,3,0.515503,0.004578,-0.010498,0.856812,0.363191,0.572545,-7.964864,-0.653575,0.236239,-17.766107,137.368439,55.616167,-17.890376,0.984000,0.984000,
184859285,136.502229,25.546726,3,0.506836,0.003479,-0.011169,0.861938,0.239065,0.629865,-8.419884,-0.622865,0.105211,-18.225793,137.806228,55.320599,-18.110369,1.000000,1.000000,
184868827,136.910280,25.546726,3,0.498230,0.002625,-0.011780,0.866943,1.356597,0.672745,-8.647140,-1.202962,1.043231,-18.437121,138.165414,55.040895,-18.324680,1.000000,1.000000,
184878674,137.726960,25.546726,3,0.489441,0.001953,-0.012451,0.871948,1.250174,0.311979,-8.635117,-0.839658,1.113192,-18.422044,138.624411,54.809300,-18.388539,1.000000,1.000000,
184889517,138.154908,25.555797,3,0.480469,0.001465,-0.013184,0.876953,0.944833,0.653497,-8.943896,-0.971753,0.673349,-18.743787,139.129648,54.552604,-18.621537,1.000000,1.000000,
184898870,138.543214,25.546726,3,0.471375,0.000977,-0.013977,0.881836,0.930671,0.762915,-8.608750,-1.053968,0.576707,-18.413304,139.529232,54.312481,-18.484966,1.000000,1.000000,
184908768,139.175752,25.555797,3,0.462097,0.000732,-0.014771,0.886719,0.797872,0.628908,-8.733156,-0.868310,0.533914,-18.537642,139.999729,54.088614,-18.519516,1.000000,1.000000,
184919778,138.971681,25.555797,3,0.452820,0.000549,-0.015503,0.891479,-0.100766,1.064526,-8.883330,-0.683333,-0.449429,-18.713907,140.401524,53.765415,-18.647015,1.000000,1.000000,
184929222,138.859468,25.551262,3,0.443298,0.000488,-0.016296,0.896240,1.049700,0.733651,-8.608152,-1.101751,0.645807,-18.413750,140.619556,53.412408,-18.494031,1.000000,1.000000,
184938936,139.360017,25.546726,3,0.433411,0.000549,-0.017090,0.901001,1.187363,0.613337,-8.698557,-1.097317,0.825330,-18.498735,140.901697,53.088294,-18.497122,1.000000,1.000000,
184950062,140.196718,25.555797,3,0.423767,0.000732,-0.017944,0.905579,-0.095244,0.711714,-8.608298,-0.365101,-0.240245,-18.433215,141.359153,52.802823,-18.455210,1.000000,1.000000,
184959285,140.901429,25.551262,3,0.414124,0.000977,-0.018799,0.910034,0.433965,0.508131,-8.432418,-0.546318,0.293647,-18.232589,141.759632,52.581495,-18.309202,1.000000,1.000000,
184970218,141.513765,25.551262,3,0.404419,0.001282,-0.019653,0.914368,0.727527,1.050501,-8.953936,-1.149590,0.170797,-18.767759,142.287302,52.348389,-18.609956,1.000000,1.000000,
184979448,141.401521,25.546726,3,0.394714,0.001526,-0.020508,0.918579,0.942206,0.593525,-8.447379,-0.964845,0.613001,-18.241889,142.603772,52.077181,-18.368557,1.000000,1.000000,
184989196,141.922029,25.551262,3,0.385071,0.001709,-0.021179,0.922668,-0.694349,0.935705,-8.136040,-0.062777,-0.814563,-17.976002,142.982956,51.824047,-18.111095,1.000000,1.000000,
184999926,142.443086,25.555797,3,0.375305,0.001892,-0.021729,0.926636,0.186393,1.049208,-8.512964,-0.757267,-0.264667,-18.341144,143.436865,51.565937,-18.261979,1.000000,1.000000,
185009508,143.239839,25.546726,3,0.365540,0.002014,-0.022156,0.930542,0.440103,1.049660,-7.946801,-0.941997,-0.125985,-17.771498,143.893275,51.373058,-17.940288,1.000000,1.000000,
185019245,143.352083,25.551262,3,0.355896,0.002136,-0.022461,0.934265,-0.612998,0.461911,-8.353418,0.250650,-0.380151,-18.175448,144.291310,51.134249,-18.094524,1.000000,1.000000,
185030353,143.239839,25.546726,3,0.346191,0.002258,-0.022583,0.937866,1.192288,0.538070,-8.613729,-1.161384,0.746919,-18.403122,144.661217,50.810441,-18.296928,1.000000,1.000000,
185039691,143.535890,25.542190,3,0.336487,0.002380,-0.022583,0.941406,0.035270,1.152742,-8.086745,-0.672641,-0.508760,-17.924888,144.924101,50.512568,-18.052924,1.000000,1.000000,
185049547,144.465364,25.546726,3,0.326782,0.002502,-0.022461,0.944824,-0.042734,1.018295,-8.614977,-0.509794,-0.446345,-18.448570,145.335152,50.278299,-18.312418,1.000000,1.000000,
185061174,145.394410,25.551262,3,0.317078,0.002625,-0.022278,0.948120,0.555521,0.478693,-7.960021,-0.659967,0.312006,-17.760235,145.929665,50.078212,-17.950258,1.000000,1.000000,
185070134,145.394410,25.551262,3,0.307495,0.002747,-0.021973,0.951294,0.033833,1.139036,-7.918477,-0.629445,-0.553703,-17.755189,146.277339,49.856397,-17.822321,1.000000,1.000000,
185079705,145.915101,25.555797,3,0.298218,0.002747,-0.021606,0.954224,0.258230,0.467225,-7.521969,-0.422459,0.096761,-17.327491,146.685922,49.649050,-17.497779,1.000000,1.000000,
185091515,146.937257,25.555797,3,0.288940,0.002686,-0.021179,0.957092,-0.598378,0.724446,-7.549812,0.149328,-0.600130,-17.379858,147.318165,49.472261,-17.420437,1.000000,1.000000,
185100416,146.713167,25.546726,3,0.279358,0.002502,-0.020691,0.959961,0.907805,0.404285,-8.352454,-0.923874,0.494307,-18.144130,147.644365,49.239131,-17.895088,1.000000,1.000000,
185109941,147.029176,25.551262,3,0.269043,0.002197,-0.020020,0.962891,-0.587512,1.276142,-7.428812,-0.113125,-1.090473,-17.276904,147.997438,49.004125,-17.489643,1.000000,1.000000,
185120805,147.437654,25.551262,3,0.258484,0.001831,-0.019348,0.965820,0.026674,0.234684,-7.646474,-0.089721,0.110470,-17.446000,148.423966,48.751061,-17.461021,1.000000,1.000000,
185130251,147.867036,25.560333,3,0.247742,0.001404,-0.018616,0.968628,0.623083,0.758031,-7.532159,-0.864441,-0.079440,-17.342792,148.779394,48.523013,-17.383481,1.000000,1.000000,
185140975,148.275026,25.560333,3,0.236450,0.000977,-0.017944,0.971497,0.832280,0.636779,-7.210746,-0.982570,0.079221,-17.025416,149.204325,48.282828,-17.148639,1.000000,1.000000,
185150281,148.459413,25.551262,3,0.225098,0.000488,-0.017151,0.974182,1.209575,-0.121635,-7.448316,-0.985324,0.897401,-17.234949,149.513385,48.036358,-17.205250,1.000000,1.000000,
185159991,149.072206,25.551262,3,0.213745,-0.000061,-0.016357,0.976746,0.812139,0.454489,-7.450828,-0.879918,0.170636,-17.260875,149.896431,47.818560,-17.241734,1.000000,1.000000,
185171055,149.593629,25.555797,3,0.202515,-0.000671,-0.015625,0.979187,0.766120,-0.213123,-7.188106,-0.571259,0.723484,-16.978837,150.367764,47.596296,-17.069310,1.000000,1.000000,
185180493,150.001680,25.555797,3,0.191345,-0.001282,-0.015015,0.981384,0.053848,0.326883,-7.379340,-0.111825,-0.064567,-17.189943,150.747635,47.391680,-17.148431,1.000000,1.000000,
185190234,151.024232,25.555797,3,0.180481,-0.001892,-0.014404,0.983459,1.171607,0.186661,-7.266976,-1.099251,0.448266,-17.071595,151.260250,47.256960,-17.098036,1.000000,1.000000,
185200953,150.616121,25.555797,3,0.169495,-0.002502,-0.013855,0.985413,0.553993,0.111033,-7.143012,-0.486235,0.274399,-16.947153,151.645213,47.002089,-16.999079,1.000000,1.000000,
185210446,151.024232,25.555797,3,0.158691,-0.003235,-0.013428,0.987244,0.076510,0.099631,-6.997071,-0.025434,0.116936,-16.800772,151.974363,46.771129,-16.869018,1.000000,1.000000,
185220099,152.046357,25.555797,3,0.148071,-0.003967,-0.013062,0.988892,0.484039,0.316156,-6.854291,-0.465073,0.010537,-16.665690,152.438552,46.618466,-16.735661,1.000000,1.000000,
185231076,152.639497,25.546726,3,0.137573,-0.004700,-0.012878,0.990417,1.182172,0.672446,-7.405884,-1.218421,-0.144316,-17.231514,152.986851,46.452284,-17.060875,1.000000,1.000000,
185240561,152.864229,25.555797,3,0.127014,-0.005371,-0.012756,0.991821,0.125850,0.347869,-7.116799,-0.107547,-0.133746,-16.927981,153.403729,46.277615,-16.973714,1.000000,1.000000,
185250440,153.456910,25.546726,3,0.116516,-0.005981,-0.012634,0.993103,0.067716,0.288353,-6.806226,-0.022029,-0.095809,-16.615317,153.870066,46.119534,-16.738652,1.000000,1.000000,
185261136,153.886018,25.555797,3,0.105835,-0.006653,-0.012573,0.994263,0.599228,0.257079,-7.077234,-0.521890,0.049955,-16.891185,154.365375,45.940726,-16.838694,1.000000,1.000000,
185270572,153.681642,25.555797,3,0.094849,-0.007263,-0.012634,0.995361,0.920984,-0.028822,-6.871636,-0.774824,0.364278,-16.683123,154.670086,45.704499,-16.736663,1.000000,1.000000,
185280257,154.704561,25.555797,3,0.083557,-0.007935,-0.012756,0.996399,-0.510367,-0.052546,-6.562489,0.634125,0.126342,-16.355449,155.118435,45.550032,-16.486636,1.000000,1.000000,
185291260,154.796052,25.551262,3,0.072144,-0.008667,-0.012939,0.997253,-0.053229,0.155808,-7.078382,0.167799,0.017125,-16.882938,155.558216,45.327931,-16.746559,1.000000,1.000000,
185300822,155.205354,25.551262,3,0.060547,-0.009338,-0.013184,0.998047,0.497989,0.232833,-6.680465,-0.379013,0.005671,-16.496603,155.924803,45.129509,-16.582622,1.000000,1.000000,
185310631,155.726533,25.555797,3,0.049133,-0.009949,-0.013489,0.998657,0.499793,0.480884,-6.868251,-0.396573,-0.247339,-16.692456,156.329549,44.943103,-16.654660,1.000000,1.000000,
185321336,155.706666,25.546726,3,0.037598,-0.010681,-0.013855,0.999146,0.271610,0.256231,-6.619938,-0.132016,-0.048316,-16.434251,156.693077,44.696181,-16.510103,1.000000,1.000000,
185330794,155.726533,25.555797,3,0.025879,-0.011414,-0.014282,0.999512,0.985563,0.673114,-6.626360,-0.855786,-0.429985,-16.469548,156.934055,44.428902,-16.483508,1.000000,1.000000,
185341813,156.933687,25.546726,3,0.014221,-0.012085,-0.014771,0.999695,0.272372,0.956044,-6.638900,-0.133096,-0.750892,-16.466087,157.422549,44.247413,-16.472082,1.000000,1.000000,
185351082,157.157991,25.555797,3,0.002686,-0.012756,-0.015259,0.999817,0.669567,0.174894,-6.147490,-0.503850,0.015731,-15.962531,157.782454,44.068962,-16.137884,1.000000,1.000000,
185360930,158.272737,25.551262,3,-0.008850,-0.013428,-0.015808,0.999756,0.648041,0.724327,-6.438646,-0.457866,-0.522560,-16.271451,158.307441,43.964710,-16.225485,1.000000,1.000000,
185371942,158.681672,25.551262,3,-0.020447,-0.014038,-0.016418,0.999573,0.455006,0.580609,-6.384379,-0.254270,-0.378969,-16.209126,158.860698,43.828808,-16.214754,1.000000,1.000000,
185381398,158.681672,25.551262,3,-0.032227,-0.014648,-0.016968,0.999207,0.739139,0.641209,-6.226710,-0.512734,-0.466112,-16.063552,159.240891,43.656205,-16.115586,1.000000,1.000000,
185391001,158.385164,25.555797,3,-0.044006,-0.015259,-0.017395,0.998779,0.019044,1.032930,-6.375988,0.260005,-0.792268,-16.204404,159.499163,43.402639,-16.173843,1.000000,1.000000,
185402040,159.223939,25.564869,3,-0.056091,-0.015808,-0.017700,0.998169,0.741071,0.589791,-6.075014,-0.482416,-0.433076,-15.913271,159.925779,43.195602,-16.002943,1.000000,1.000000,
185411327,159.019471,25.564869,3,-0.068298,-0.016296,-0.017822,0.997375,0.361775,0.493032,-6.169224,-0.103687,-0.297249,-15.992225,160.156483,42.942130,-15.995917,1.000000,1.000000,
185421173,160.113527,25.551262,3,-0.080750,-0.016724,-0.017822,0.996460,0.645561,0.469826,-6.171676,-0.368503,-0.328681,-16.004574,160.570473,42.779655,-16.001595,1.000000,1.000000,
185432079,160.431001,25.555797,3,-0.093079,-0.017090,-0.017639,0.995361,0.512240,0.589810,-5.727443,-0.212398,-0.450516,-15.559995,161.010000,42.593938,-15.711964,1.000000,1.000000,
185441559,160.134980,25.560333,3,-0.105103,-0.017456,-0.017456,0.994141,-0.043379,0.754050,-5.870150,0.387786,-0.497128,-15.686313,161.249181,42.344083,-15.695144,1.000000,1.000000,
185451265,160.041871,25.564869,3,-0.117249,-0.017700,-0.017090,0.992798,0.501911,0.274071,-5.887757,-0.237276,-0.155941,-15.710105,161.433417,42.053727,-15.704961,1.000000,1.000000,
185462087,160.952455,25.560333,3,-0.129578,-0.017883,-0.016663,0.991272,0.729839,0.178137,-5.657208,-0.475519,-0.135417,-15.485618,161.797556,41.831452,-15.561103,1.000000,1.000000,
185471485,161.863099,25.555797,3,-0.142151,-0.017944,-0.016174,0.989563,0.173243,0.962572,-5.910518,0.289908,-0.748031,-15.737684,162.202260,41.691046,-15.676917,1.000000,1.000000,
185482452,162.068147,25.555797,3,-0.154663,-0.017944,-0.015625,0.987671,0.648891,0.131033,-5.828969,-0.396773,-0.101128,-15.652523,162.633425,41.504111,-15.660918,1.000000,1.000000,
185491626,162.272157,25.555797,3,-0.166809,-0.017822,-0.015076,0.985718,0.051000,0.268644,-5.605109,0.211546,-0.066374,-15.407899,162.945878,41.321016,-15.494973,1.000000,1.000000,
185501459,162.681733,25.555797,3,-0.178467,-0.017700,-0.014465,0.983704,0.936428,0.420022,-5.857473,-0.555580,-0.510563,-15.698109,163.301978,41.136619,-15.628205,1.000000,1.000000,
185512206,162.999299,25.560333,3,-0.189819,-0.017517,-0.013855,0.981567,0.644004,-0.128955,-5.374741,-0.481357,0.066329,-15.191673,163.686537,40.938865,-15.341898,1.000000,1.000000,
185521830,163.295900,25.555797,3,-0.200806,-0.017334,-0.013245,0.979370,0.211596,0.402826,-5.392680,0.120755,-0.268421,-15.202526,164.006674,40.747623,-15.250490,1.000000,1.000000,
185531639,162.999299,25.560333,3,-0.211731,-0.017029,-0.012634,0.977112,0.355547,0.664494,-5.416691,0.110226,-0.574236,-15.235630,164.217046,40.483231,-15.240748,1.000000,1.000000,
185542692,164.410829,25.551262,3,-0.222778,-0.016663,-0.012085,0.974670,0.151370,0.144908,-5.144193,0.063487,-0.029088,-14.946038,164.699903,40.339936,-15.047456,1.000000,1.000000,
185552059,163.612947,25.560333,3,-0.233643,-0.016296,-0.011536,0.972107,0.025008,0.516521,-5.880918,0.367758,-0.288589,-15.682422,164.873420,40.066747,-15.463916,1.000000,1.000000,
185561885,164.093751,25.546726,3,-0.244568,-0.015991,-0.011047,0.969421,-0.163632,0.470946,-5.372897,0.509384,-0.173801,-15.166397,165.120425,39.828664,-15.268786,1.000000,1.000000,
185572831,165.137056,25.555797,3,-0.255371,-0.015686,-0.010559,0.966675,0.284530,0.103893,-5.368917,-0.062916,-0.076820,-15.173519,165.558599,39.664430,-15.206303,1.000000,1.000000,
185582282,164.410829,25.551262,3,-0.265747,-0.015381,-0.010010,0.963867,-0.326687,0.232804,-5.497994,0.531370,0.127706,-15.291857,165.717761,39.386951,-15.262420,1.000000,1.000000,
185591856,165.546785,25.555797,3,-0.276123,-0.015076,-0.009644,0.960938,-0.326333,0.397189,-5.138160,0.614141,-0.021965,-14.933792,166.062174,39.224461,-15.046884,1.000000,1.000000,
185602963,165.976899,25.564869,3,-0.286377,-0.014771,-0.009399,0.957947,0.652734,0.524614,-5.665207,-0.129298,-0.643257,-15.494695,166.480896,39.042922,-15.340590,1.000000,1.000000,
185612413,166.886964,25.560333,3,-0.296326,-0.014587,-0.009216,0.954895,-0.089370,0.691947,-5.068066,0.580068,-0.376364,-14.873811,166.925280,38.949556,-15.034443,1.000000,1.000000,
185622163,165.864412,25.560333,3,-0.306091,-0.014404,-0.009155,0.951843,1.001407,-0.035276,-5.103003,-0.722014,-0.414816,-14.938346,167.105718,38.682706,-14.971420,1.000000,1.000000,
185632987,167.092622,25.560333,3,-0.315735,-0.014221,-0.009277,0.948669,0.933758,0.013368,-5.391068,-0.626302,-0.421651,-15.224288,167.521065,38.516522,-15.137268,1.000000,1.000000,
185642349,167.480958,25.551262,3,-0.325256,-0.014038,-0.009399,0.945496,-0.763425,0.244139,-4.961390,0.850510,0.414262,-14.741282,167.873517,38.374032,-14.877554,1.000000,1.000000,
185653140,167.297273,25.560333,3,-0.334473,-0.013916,-0.009521,0.942261,0.611314,0.222859,-5.138129,-0.227255,-0.408426,-14.962279,168.178810,38.147028,-14.933125,1.000000,1.000000,
185662500,168.115815,25.560333,3,-0.343750,-0.013916,-0.009705,0.938904,0.383289,0.248026,-4.979428,-0.037367,-0.293489,-14.796829,168.523426,38.001305,-14.843733,1.000000,1.000000,
185672231,168.913514,25.551262,3,-0.352966,-0.013916,-0.009888,0.935486,-0.529754,0.542436,-4.694947,0.844856,0.081773,-14.484974,168.965561,37.904752,-14.608432,1.000000,1.000000,
185684239,168.821931,25.555797,3,-0.361938,-0.013916,-0.010071,0.932068,-0.121582,0.124921,-4.981038,0.260253,0.134616,-14.781023,169.392735,37.711127,-14.721630,1.000000,1.000000,
185693103,169.139131,25.560333,3,-0.370483,-0.014038,-0.010254,0.928650,0.805222,0.287592,-4.822136,-0.299835,-0.616818,-14.654699,169.678897,37.551457,-14.677733,1.000000,1.000000,
185702613,169.027101,25.555797,3,-0.379028,-0.014221,-0.010498,0.925232,-0.168338,0.656919,-4.798529,0.669918,-0.197429,-14.601319,169.913326,37.337976,-14.627618,1.000000,1.000000,
185714252,169.548982,25.560333,3,-0.387268,-0.014526,-0.010742,0.921814,0.012246,0.384163,-4.965372,0.350478,-0.125153,-14.762425,170.278639,37.124957,-14.716035,1.000000,1.000000,
185723133,170.050508,25.555797,3,-0.395325,-0.014832,-0.011108,0.918335,0.537294,0.308704,-4.574013,-0.062017,-0.449539,-14.389485,170.565047,36.970728,-14.501862,1.000000,1.000000,
185732767,170.459871,25.555797,3,-0.403259,-0.015198,-0.011414,0.914917,-0.083921,0.782678,-4.643200,0.719194,-0.307244,-14.440434,170.900869,36.819624,-14.461574,0.984375,0.984375,
185743715,170.777650,25.560333,3,-0.411316,-0.015686,-0.011780,0.911255,0.287528,0.171243,-4.657006,0.026787,-0.162214,-14.463208,171.280031,36.647338,-14.462646,0.968750,0.968750,
185753172,171.073976,25.555797,3,-0.419495,-0.016296,-0.012085,0.907532,0.221045,0.126233,-4.514616,0.046000,-0.081643,-14.318416,171.587379,36.488226,-14.368051,0.953125,0.953125,
185762726,171.187074,25.560333,3,-0.427490,-0.016907,-0.012451,0.903748,-0.316657,0.210062,-4.759031,0.453413,0.295790,-14.541891,171.860395,36.303700,-14.482069,0.933125,0.933125,
185773652,172.302827,25.555797,3,-0.435242,-0.017578,-0.012695,0.900085,-0.149900,0.378737,-4.500421,0.484640,0.062947,-14.291478,172.339038,36.197427,-14.357064,0.953125,0.953125,
185782987,172.804994,25.551262,3,-0.442810,-0.018372,-0.012939,0.896362,-0.058782,0.446159,-4.468124,0.482824,-0.039328,-14.263711,172.763574,36.117918,-14.295835,0.973125,0.973125,
185793963,172.211732,25.560333,3,-0.450500,-0.019104,-0.013184,0.892456,0.081763,0.433837,-4.695351,0.403720,-0.130313,-14.497312,173.055775,35.896293,-14.427980,0.951125,0.951125,
185803376,173.030671,25.560333,3,-0.458130,-0.019958,-0.013367,0.888550,0.338741,-0.083558,-4.086121,-0.167913,-0.047036,-13.898036,173.388374,35.762774,-14.080407,0.933125,0.933125,
185813003,173.030671,25.560333,3,-0.466064,-0.020752,-0.013550,0.884399,-0.188663,0.039287,-4.579685,0.246854,0.337537,-14.366772,173.665029,35.583676,-14.268226,0.913125,0.913125,
185823906,173.849702,25.560333,3,-0.473816,-0.021606,-0.013733,0.880249,0.225615,0.260969,-4.270334,0.195609,-0.137235,-14.080024,174.086748,35.450983,-14.144790,0.906250,0.906250,
185833372,173.737092,25.555797,3,-0.481628,-0.022461,-0.013977,0.875977,0.335556,-0.257462,-4.209207,-0.290543,0.059944,-14.023592,174.356220,35.277997,-14.065302,0.888250,0.888250,
185842951,173.849702,25.560333,3,-0.489380,-0.023376,-0.014160,0.871643,0.251351,-0.034927,-4.354221,-0.047152,0.019673,-14.165716,174.598695,35.084646,-14.131162,0.868250,0.868250,
185854088,174.238282,25.551262,3,-0.497192,-0.024231,-0.014465,0.867188,0.408253,0.249303,-4.075591,0.123661,-0.274693,-13.897819,174.921093,34.889040,-13.978121,0.846250,0.846250,
185863499,175.171052,25.555797,3,-0.504822,-0.025024,-0.014832,0.862732,0.365728,-0.154133,-4.198617,-0.197455,-0.027449,-14.019309,175.295629,34.785958,-14.005133,0.826250,0.826250,
185873232,175.283662,25.560333,3,-0.512207,-0.025818,-0.015320,0.858337,0.570778,0.286468,-4.100856,0.104066,-0.414803,-13.924856,175.631305,34.649066,-13.952482,0.808250,0.808250,
185883977,176.011201,25.564869,3,-0.519409,-0.026550,-0.015869,0.853943,0.074841,0.119520,-3.813893,0.188729,0.090325,-13.609550,176.073972,34.545782,-13.727562,0.812500,0.812500,
185893516,175.785432,25.555797,3,-0.526428,-0.027405,-0.016479,0.849609,0.690376,-0.251463,-3.930128,-0.406696,-0.279528,-13.766057,176.348841,34.381268,-13.752811,0.792500,0.792500,
185903238,176.082429,25.551262,3,-0.533203,-0.028137,-0.017151,0.845337,0.948659,-0.126895,-3.698748,-0.411637,-0.576352,-13.554244,176.632597,34.219175,-13.622578,0.772500,0.772500,
185914329,177.014314,25.555797,3,-0.540100,-0.028870,-0.017761,0.840942,0.265605,-0.006738,-3.531097,-0.008404,-0.020154,-13.343234,177.082799,34.114286,-13.439363,0.781250,0.781250,
185923666,176.810029,25.555797,3,-0.547058,-0.029480,-0.018433,0.836365,0.492351,0.204209,-3.611142,0.099629,-0.304539,-13.439945,177.349645,33.957250,-13.439746,0.761250,0.761250,
185933540,177.629335,25.555797,3,-0.553772,-0.030029,-0.019043,0.831909,0.707431,0.247680,-3.293705,0.058902,-0.528650,-13.139564,177.736670,33.859359,-13.242865,0.781250,0.781250,
185944327,177.311860,25.551262,3,-0.560425,-0.030518,-0.019714,0.827393,0.613566,0.125946,-3.488542,-0.005098,-0.382159,-13.329417,178.021574,33.667329,-13.299633,0.761250,0.761250,
185953798,178.152711,25.560333,3,-0.567261,-0.030884,-0.020447,0.822754,0.526478,0.240490,-3.496734,0.139788,-0.332719,-13.322273,178.364400,33.556270,-13.314481,0.741250,0.741250,
185964601,177.968293,25.569405,3,-0.574280,-0.031128,-0.021057,0.817810,0.424583,0.360334,-3.200419,0.285362,-0.291509,-13.020030,178.651966,33.370384,-13.121362,0.719250,0.719250,
185974068,178.879915,25.564869,3,-0.581421,-0.031311,-0.021606,0.812744,0.253022,0.579434,-3.333968,0.556846,-0.183782,-13.140795,179.009993,33.272323,-13.134107,0.703125,0.703125,
185983764,178.675081,25.564869,3,-0.588623,-0.031372,-0.022095,0.807495,0.597505,0.234714,-3.025527,0.118311,-0.418723,-12.860888,179.269312,33.109409,-12.954912,0.683125,0.683125,
185994751,178.972139,25.560333,3,-0.595825,-0.031372,-0.022461,0.802185,0.597286,0.498397,-3.165434,0.384373,-0.477415,-13.000135,179.576643,32.932886,-12.984573,0.661125,0.661125,
186004076,179.678987,25.555797,3,-0.602905,-0.031372,-0.022766,0.796875,0.443899,0.685103,-3.040996,0.614902,-0.379656,-12.863924,179.902358,32.824809,-12.905443,0.643125,0.643125,
186013914,179.678987,25.555797,3,-0.609985,-0.031311,-0.022949,0.791443,0.463802,0.651748,-2.891081,0.582960,-0.399775,-12.716635,180.182868,32.674271,-12.781610,0.623125,0.623125,
186024931,180.222902,25.569405,3,-0.616882,-0.031311,-0.023071,0.786072,0.824956,0.683232,-3.164682,0.537267,-0.723715,-13.017121,180.549539,32.535504,-12.936074,0.609375,0.609375,
186034389,180.704469,25.555797,3,-0.623718,-0.031372,-0.023071,0.780640,0.401320,0.557582,-2.744660,0.521749,-0.307346,-12.565334,180.885738,32.434727,-12.692917,0.625000,0.625000,
186044015,180.109712,25.564869,3,-0.630432,-0.031433,-0.023010,0.775269,0.427184,0.609174,-2.808333,0.573932,-0.329662,-12.630172,181.052099,32.224547,-12.651768,0.605000,0.605000,
186055103,180.908845,25.555797,3,-0.636963,-0.031433,-0.022827,0.769958,0.608055,0.286770,-2.725305,0.228431,-0.446637,-12.562387,181.381807,32.068977,-12.593146,0.583000,0.583000,
186064586,181.729005,25.555797,3,-0.643311,-0.031555,-0.022461,0.764648,0.162650,0.459927,-2.496930,0.475990,-0.045723,-12.298041,181.750420,31.992639,-12.399594,0.563000,0.563000,
186074208,182.138856,25.555797,3,-0.649658,-0.031616,-0.021973,0.759277,0.582414,0.335264,-2.581502,0.297290,-0.434225,-12.414846,182.130397,31.917560,-12.409596,0.581000,0.581000,
186084981,182.025667,25.551262,3,-0.656067,-0.031677,-0.021362,0.753723,0.405868,0.496177,-2.710128,0.491271,-0.267206,-12.526725,182.453902,31.770779,-12.486418,0.578125,0.578125,
186094436,182.570222,25.564869,3,-0.662720,-0.031738,-0.020508,0.747864,0.365338,0.220377,-2.381819,0.225286,-0.213700,-12.197630,182.775546,31.668929,-12.297010,0.593750,0.593750,
186104175,183.686677,25.560333,3,-0.669312,-0.031799,-0.019653,0.742065,0.582752,0.338489,-2.621094,0.333158,-0.425121,-12.449424,183.253906,31.651265,-12.396970,0.613750,0.613750,
186115238,183.276765,25.560333,3,-0.675781,-0.031860,-0.018616,0.736145,0.553397,0.386489,-2.231451,0.390647,-0.420148,-12.055396,183.607621,31.520327,-12.172942,0.633750,0.633750,
186124727,184.097657,25.560333,3,-0.682190,-0.031921,-0.017517,0.730286,0.290839,0.158118,-2.257528,0.195723,-0.143133,-12.074995,183.997971,31.462392,-12.108699,0.653750,0.653750,
186135535,184.825288,25.564869,3,-0.688538,-0.031921,-0.016357,0.724365,0.295731,0.134918,-2.452265,0.186914,-0.131897,-12.268321,184.492275,31.424256,-12.213387,0.673750,0.673750,
186144980,183.891633,25.560333,3,-0.694885,-0.031860,-0.015076,0.718262,0.306787,0.191811,-2.211432,0.238558,-0.162553,-12.026111,184.676027,31.241216,-12.090561,0.693750,0.693750,
186154582,184.323060,25.569405,3,-0.701294,-0.031738,-0.013733,0.712036,0.151673,0.368860,-2.557986,0.437571,0.008492,-12.355645,184.909349,31.082252,-12.264423,0.713750,0.713750,
186165486,185.030275,25.564869,3,-0.707642,-0.031616,-0.012390,0.705750,-0.002395,0.185349,-2.294584,0.254595,0.154878,-12.085921,185.270203,30.964089,-12.147349,0.733750,0.733750,
186174813,185.306550,25.551262,3,-0.713867,-0.031494,-0.010925,0.699463,0.308556,0.173761,-2.229615,0.244521,-0.165445,-12.039382,185.565293,30.856030,-12.076537,0.753750,0.753750,
186184622,185.829805,25.555797,3,-0.720215,-0.031250,-0.009460,0.692932,-0.152460,0.270850,-2.476319,0.340389,0.314356,-12.254070,185.916870,30.765878,-12.192974,0.773750,0.773750,
186195712,185.532533,25.560333,3,-0.726624,-0.030945,-0.007996,0.686340,0.011995,-0.107171,-2.290110,-0.032506,0.110480,-12.089632,186.185348,30.588243,-12.125197,0.795750,0.795750,
186205151,186.968629,25.560333,3,-0.732910,-0.030701,-0.006531,0.679626,0.126860,-0.053913,-2.463423,0.038892,0.005403,-12.266050,186.620243,30.562964,-12.217574,0.813750,0.813750,
186214854,186.465272,25.564869,3,-0.739136,-0.030396,-0.005188,0.672913,-0.014699,0.266903,-2.566586,0.350731,0.178667,-12.349137,186.887198,30.425455,-12.303863,0.833750,0.833750,
186225874,187.173127,25.560333,3,-0.745239,-0.030090,-0.003967,0.666077,0.057275,0.056768,-2.324119,0.149792,0.067503,-12.117941,187.275309,30.324258,-12.181921,0.855750,0.855750,
186235061,187.470460,25.555797,3,-0.751343,-0.029785,-0.002808,0.659180,0.049594,-0.002856,-2.771200,0.102282,0.091103,-12.565693,187.589900,30.231197,-12.433624,0.873750,0.873750,
186244970,187.399141,25.569405,3,-0.757446,-0.029480,-0.001770,0.652222,-0.228444,0.131392,-2.473363,0.188637,0.364940,-12.250845,187.853161,30.088126,-12.313746,0.893750,0.893750,
186255998,187.695955,25.564869,3,-0.763550,-0.029175,-0.000854,0.645081,0.076103,0.152853,-2.804233,0.270578,0.080894,-12.592163,188.154753,29.931548,-12.496352,0.915750,0.915750,
186265446,188.608949,25.560333,3,-0.769531,-0.028870,-0.000061,0.638000,-0.206759,0.149947,-2.720985,0.213198,0.354796,-12.508211,188.522070,29.865886,-12.504128,0.933750,0.933750,
186276100,188.290620,25.555797,3,-0.775391,-0.028564,0.000732,0.630859,-0.067012,0.193056,-2.559629,0.273228,0.218577,-12.350158,188.796213,29.707852,-12.403145,0.955750,0.955750,
186285550,188.814546,25.560333,3,-0.781067,-0.028381,0.001465,0.623779,-0.504470,0.123828,-2.812507,0.116342,0.643656,-12.591098,189.079815,29.590923,-12.526418,0.968750,0.968750,
186295145,188.722230,25.564869,3,-0.786560,-0.028076,0.002014,0.616821,-0.360553,0.119394,-2.666917,0.135691,0.499484,-12.450695,189.296238,29.430718,-12.476755,0.948750,0.948750,
186307173,189.246156,25.569405,3,-0.791992,-0.027771,0.002502,0.609863,-0.103365,0.222861,-2.885927,0.293250,0.297540,-12.672356,189.639923,29.272794,-12.605044,0.928750,0.928750,
186316054,189.521516,25.555797,3,-0.797302,-0.027527,0.002869,0.602966,0.117286,-0.079207,-2.972311,0.069342,-0.002701,-12.779378,189.877187,29.145255,-12.719385,0.908750,0.908750,
186325583,189.839906,25.560333,3,-0.802429,-0.027283,0.003174,0.596130,-0.224719,-0.116323,-2.649388,-0.073076,0.297979,-12.449002,190.147379,29.022378,-12.542049,0.888750,0.888750,
186337186,189.542512,25.564869,3,-0.807434,-0.027161,0.003357,0.589355,-0.037787,0.126356,-2.839586,0.220105,0.200586,-12.632266,190.369956,28.807358,-12.601222,0.866750,0.866750,
186346082,190.476655,25.569405,3,-0.812195,-0.027100,0.003357,0.582764,-0.510026,0.210539,-2.917938,0.151174,0.676230,-12.694149,190.645712,28.706820,-12.662169,0.848750,0.848750,
186355642,190.568452,25.564869,3,-0.816833,-0.027039,0.003235,0.576294,-0.220933,-0.184984,-2.525774,-0.148465,0.255099,-12.329156,190.905139,28.580161,-12.443756,0.828750,0.828750,
186366556,191.070436,25.560333,3,-0.821167,-0.027100,0.002991,0.570007,-0.583528,0.371182,-2.792563,0.250606,0.798419,-12.559447,191.247258,28.461800,-12.519634,0.808750,0.808750,
186375705,191.092469,25.569405,3,-0.825378,-0.027222,0.002686,0.563965,-0.602181,0.311690,-2.521921,0.157101,0.786508,-12.291838,191.478170,28.331648,-12.370230,0.788750,0.788750,
186385571,191.686311,25.560333,3,-0.829590,-0.027344,0.002258,0.557678,0.024967,-0.262856,-2.297007,-0.147131,-0.017942,-12.111047,191.796057,28.235642,-12.200239,0.768750,0.768750,
186396331,191.799104,25.564869,3,-0.833679,-0.027588,0.001587,0.551514,-0.269136,0.207128,-2.764101,0.183068,0.456050,-12.547026,192.099702,28.101100,-12.427686,0.765625,0.765625,
186405851,192.415010,25.564869,3,-0.837769,-0.027954,0.000854,0.545349,-0.286076,0.359901,-2.481670,0.297804,0.528495,-12.257078,192.425713,28.020595,-12.315788,0.785625,0.785625,
186415586,192.733461,25.569405,3,-0.841614,-0.028381,0.000000,0.539307,-0.369868,0.187719,-2.426720,0.097589,0.533589,-12.207908,192.755512,27.936659,-12.245032,0.805625,0.805625,
186426686,192.620668,25.564869,3,-0.845398,-0.028870,-0.000977,0.533325,-0.159268,0.132240,-2.553140,0.129122,0.338685,-12.343089,193.039595,27.784468,-12.309345,0.825625,0.825625,
186436030,192.825807,25.564869,3,-0.849243,-0.029480,-0.002075,0.527161,-0.239441,0.582341,-2.284659,0.482243,0.603549,-12.040861,193.258660,27.647405,-12.133256,0.805625,0.805625,
186445917,194.149598,25.560333,3,-0.853027,-0.030151,-0.003296,0.521057,-0.134405,0.289718,-2.487999,0.259286,0.390642,-12.262438,193.698177,27.627478,-12.217979,0.825625,0.825625,
186456926,193.759736,25.569405,3,-0.856750,-0.030945,-0.004517,0.514771,0.190471,0.327454,-2.329055,0.434405,0.128621,-12.114856,194.013128,27.501050,-12.150343,0.847625,0.847625,
186466372,194.467561,25.564869,3,-0.860657,-0.031921,-0.005798,0.508179,-0.293498,0.393895,-2.179666,0.249619,0.584303,-11.943655,194.357508,27.440867,-12.014781,0.865625,0.865625,
186477019,195.174958,25.560333,3,-0.864563,-0.032898,-0.007141,0.501404,0.123755,0.430567,-2.336610,0.487470,0.263043,-12.117165,194.802100,27.405173,-12.081928,0.887625,0.887625,
186486408,195.083101,25.564869,3,-0.868408,-0.033875,-0.008484,0.494629,0.035996,0.255472,-2.006127,0.278011,0.238710,-11.793623,195.111532,27.326966,-11.892836,0.905625,0.905625,
186496008,194.672761,25.564869,3,-0.872192,-0.034973,-0.009766,0.487793,-0.037280,0.505581,-2.379687,0.454923,0.467169,-12.151005,195.291177,27.160375,-12.062163,0.925625,0.925625,
186507081,195.381196,25.560333,3,-0.875977,-0.036133,-0.011108,0.480835,0.283029,0.454182,-2.075636,0.570892,0.162302,-11.858793,195.608061,27.039129,-11.928778,0.947625,0.947625,
186516568,195.493501,25.564869,3,-0.879761,-0.037354,-0.012329,0.473755,0.194681,0.262824,-2.254931,0.360298,0.169723,-12.044129,195.842576,26.911609,-12.004434,0.967625,0.967625,
186526326,195.606843,25.569405,3,-0.883606,-0.038574,-0.013550,0.466370,0.145941,0.418978,-2.453944,0.457127,0.322223,-12.233300,196.060459,26.765363,-12.154541,0.985625,0.985625,
186537063,196.181001,25.551262,3,-0.887329,-0.039856,-0.014709,0.459167,0.454525,0.384817,-2.111828,0.596952,0.033959,-11.915714,196.369734,26.651017,-11.997901,1.000000,1.000000,
186546543,196.314821,25.564869,3,-0.890930,-0.041199,-0.015808,0.452026,0.181038,0.447040,-2.358526,0.495920,0.330288,-12.132307,196.611550,26.529644,-12.086054,1.000000,1.000000,
186556207,196.612397,25.560333,3,-0.894409,-0.042542,-0.016907,0.444885,0.149131,0.627862,-2.520534,0.612007,0.499253,-12.281850,196.867510,26.411040,-12.214470,1.000000,1.000000,
186567028,196.725251,25.564869,3,-0.897888,-0.043884,-0.017883,0.437622,0.248242,0.198224,-2.230721,0.329504,0.144293,-12.029041,197.125973,26.264727,-12.092853,1.000000,1.000000,
186576567,197.638521,25.560333,3,-0.901367,-0.045288,-0.018738,0.430298,0.478398,0.672541,-2.686615,0.837396,0.316423,-12.461195,197.471908,26.204623,-12.334435,1.000000,1.000000,
186586417,197.340913,25.564869,3,-0.904663,-0.046753,-0.019531,0.423035,0.397578,0.325968,-2.518894,0.518606,0.166569,-12.313084,197.704908,26.068446,-12.320432,1.000000,1.000000,
186597174,197.751924,25.564869,3,-0.907837,-0.048157,-0.020203,0.416016,0.415563,0.459590,-2.510639,0.628199,0.250398,-12.299493,197.993419,25.941465,-12.306699,1.000000,1.000000,
186606682,198.276307,25.569405,3,-0.910889,-0.049622,-0.020752,0.409180,0.683655,0.405110,-2.588881,0.765648,0.049429,-12.393134,198.292484,25.856150,-12.363388,1.000000,1.000000,
186616411,198.983400,25.564869,3,-0.913635,-0.051025,-0.021240,0.402710,0.277376,0.095738,-2.311104,0.265518,0.122044,-12.111019,198.672798,25.816933,-12.197864,1.000000,1.000000,
186627450,198.983400,25.564869,3,-0.916382,-0.052429,-0.021606,0.396301,0.735111,0.026547,-2.636793,0.527170,-0.208867,-12.479671,199.015185,25.714456,-12.382691,1.000000,1.000000,
186636952,199.692140,25.560333,3,-0.918884,-0.053772,-0.021851,0.390198,0.833064,0.463700,-2.507601,0.914407,0.019990,-12.326685,199.385776,25.675530,-12.345955,1.000000,1.000000,
186647886,199.302583,25.569405,3,-0.921387,-0.055176,-0.021973,0.384155,0.865360,0.020808,-2.225481,0.627194,-0.329954,-12.078617,199.650215,25.533870,-12.170617,1.000000,1.000000,
186657345,199.713136,25.569405,3,-0.923767,-0.056519,-0.021912,0.378174,1.089474,0.080582,-2.587788,0.835743,-0.383574,-12.453829,199.902959,25.423261,-12.356366,1.000000,1.000000,
186666921,199.918428,25.569405,3,-0.926086,-0.057800,-0.021790,0.372192,0.988167,-0.157698,-2.300982,0.605479,-0.502361,-12.184277,200.148757,25.308370,-12.243498,1.000000,1.000000,
186677936,200.513276,25.560333,3,-0.928345,-0.058960,-0.021423,0.366333,0.853621,-0.077515,-2.197454,0.582184,-0.351271,-12.054300,200.495074,25.216840,-12.119407,1.000000,1.000000,
186687097,200.832002,25.564869,3,-0.930481,-0.059998,-0.020996,0.360718,0.881662,-0.155502,-2.338839,0.555187,-0.398094,-12.205610,200.788673,25.143931,-12.175943,1.000000,1.000000,
186696983,200.626680,25.564869,3,-0.932556,-0.060913,-0.020447,0.355286,0.730810,-0.262777,-2.062175,0.376283,-0.406628,-11.930858,201.006353,25.007578,-12.015200,1.000000,1.000000,
186707987,201.243135,25.564869,3,-0.934509,-0.061707,-0.019653,0.349976,0.980408,0.191239,-2.408554,0.881733,-0.178602,-12.248653,201.325128,24.899716,-12.168313,1.000000,1.000000,
186717462,201.540315,25.560333,3,-0.936401,-0.062378,-0.018860,0.344849,0.487334,-0.018258,-2.078774,0.374140,-0.046504,-11.903029,201.600839,24.811885,-11.994321,1.000000,1.000000,
186727013,201.561342,25.569405,3,-0.938171,-0.062866,-0.017883,0.339966,0.715359,-0.043425,-2.237475,0.540756,-0.186022,-12.079922,201.829870,24.691997,-12.050464,1.000000,1.000000,
186738162,201.356019,25.569405,3,-0.939758,-0.063293,-0.016846,0.335449,0.885185,0.021626,-2.255345,0.721813,-0.237371,-12.102299,202.015671,24.503530,-12.084463,1.000000,1.000000,
186747546,201.859071,25.564869,3,-0.941345,-0.063538,-0.015747,0.331055,0.855649,-0.376334,-1.985841,0.454942,-0.561790,-11.875020,202.215765,24.374083,-11.947096,1.000000,1.000000,
186757261,202.291230,25.573940,3,-0.942810,-0.063660,-0.014526,0.326904,0.540424,-0.150382,-2.294675,0.361471,-0.144998,-12.131765,202.466106,24.264816,-12.068215,1.000000,1.000000,
186768211,202.566957,25.560333,3,-0.944153,-0.063721,-0.013306,0.323120,0.479173,-0.169767,-1.997225,0.302401,-0.156829,-11.832878,202.749992,24.146574,-11.913865,1.000000,1.000000,
186777689,202.475557,25.564869,3,-0.945435,-0.063599,-0.011963,0.319397,0.532815,-0.597329,-1.923135,0.099262,-0.542630,-11.809670,202.926924,24.003016,-11.845528,1.000000,1.000000,
186788397,202.978151,25.560333,3,-0.946655,-0.063416,-0.010559,0.315857,0.357933,0.041144,-2.199677,0.349167,0.104016,-11.998676,203.192849,23.880419,-11.945973,1.000000,1.000000,
186797857,202.978151,25.560333,3,-0.947754,-0.063110,-0.009155,0.312622,0.404131,0.143991,-1.963212,0.452184,0.130709,-11.752425,203.378027,23.744527,-11.819032,1.000000,1.000000,
186807427,203.891450,25.555797,3,-0.948730,-0.062744,-0.007751,0.309692,0.427681,-0.102905,-2.169101,0.333157,-0.062131,-11.984551,203.700807,23.688323,-11.927588,1.000000,1.000000,
186818510,203.708162,25.564869,3,-0.949646,-0.062256,-0.006287,0.307068,0.235798,-0.137669,-2.143583,0.166331,0.015105,-11.950953,203.963987,23.556714,-11.942913,1.000000,1.000000,
186827739,204.210786,25.560333,3,-0.950562,-0.061646,-0.004822,0.304321,0.211220,-0.016007,-1.828954,0.214327,0.097538,-11.630094,204.227132,23.478007,-11.737744,1.000000,1.000000,
186837569,204.621553,25.560333,3,-0.951477,-0.060852,-0.003418,0.301636,0.291436,-0.119427,-2.067324,0.232110,-0.014233,-11.880253,204.531160,23.405985,-11.831210,1.000000,1.000000,
186848336,203.431917,25.578476,3,-0.952393,-0.060059,-0.001953,0.298950,0.488438,-0.290965,-1.947958,0.291015,-0.285182,-11.786672,204.576675,23.154668,-11.802003,1.000000,1.000000,
186857953,204.826906,25.560333,3,-0.953247,-0.059143,-0.000427,0.296387,0.049678,0.054170,-1.812643,0.133714,0.223831,-11.593885,204.845688,23.071973,-11.665504,1.000000,1.000000,
186867584,205.031770,25.560333,3,-0.954102,-0.058105,0.001038,0.293884,0.207915,0.190138,-2.091809,0.351439,0.275809,-11.868875,205.102165,22.978833,-11.798888,1.000000,1.000000,
186878585,204.642549,25.569405,3,-0.954895,-0.056946,0.002502,0.291443,0.165185,-0.152223,-1.895539,0.117578,-0.008804,-11.708101,205.268187,22.798027,-11.739346,1.000000,1.000000,
186887997,205.259218,25.569405,3,-0.955688,-0.055786,0.003967,0.289062,0.072467,-0.199983,-1.929448,0.029492,0.003171,-11.741396,205.480562,22.686482,-11.740691,1.000000,1.000000,
186897852,205.946321,25.555797,3,-0.956421,-0.054504,0.005371,0.286743,0.207408,0.185301,-2.032421,0.355540,0.250043,-11.803160,205.790746,22.623147,-11.781661,1.000000,1.000000,
186908585,205.761934,25.564869,3,-0.957214,-0.053162,0.006775,0.284363,0.000972,0.158257,-1.732090,0.157059,0.310757,-11.510995,206.027514,22.496245,-11.604139,1.000000,1.000000,
186918212,206.172731,25.564869,3,-0.958069,-0.051758,0.008118,0.281799,0.110838,0.037769,-1.910519,0.199920,0.160227,-11.700656,206.270736,22.400284,-11.667441,1.000000,1.000000,
186928015,206.470613,25.560333,3,-0.958862,-0.050293,0.009399,0.279236,-0.137460,0.190734,-1.752315,0.063103,0.403876,-11.522901,206.527197,22.310116,-11.572641,1.000000,1.000000,
186940048,206.470613,25.560333,3,-0.959717,-0.048828,0.010681,0.276489,0.014317,0.271898,-1.948181,0.234062,0.432529,-11.707577,206.784197,22.162917,-11.661142,1.000000,1.000000,
186948887,206.584596,25.564869,3,-0.960571,-0.047302,0.011902,0.273682,-0.067970,0.327455,-1.951536,0.211635,0.480645,-11.706371,206.942215,22.035887,-11.690807,1.000000,1.000000,
186958363,207.087373,25.560333,3,-0.961426,-0.045776,0.013062,0.270813,-0.170003,0.348020,-1.745249,0.126846,0.525865,-11.508504,207.177696,21.943479,-11.571240,1.000000,1.000000,
186970008,207.292817,25.560333,3,-0.962402,-0.044189,0.014160,0.267761,0.063333,0.632471,-2.018280,0.475340,0.699708,-11.750476,207.453992,21.819822,-11.688795,1.000000,1.000000,
186978963,207.725221,25.569405,3,-0.963318,-0.042664,0.015137,0.264465,-0.049374,0.299093,-1.743039,0.205778,0.411758,-11.509014,207.699763,21.748569,-11.570881,1.000000,1.000000,
186989617,207.817170,25.564869,3,-0.964294,-0.041138,0.016113,0.261108,-0.202819,0.023558,-1.658749,-0.072684,0.238138,-11.450380,207.952819,21.639923,-11.491848,1.000000,1.000000,
186998809,208.022615,25.564869,3,-0.965271,-0.039612,0.017029,0.257751,-0.038475,0.424334,-1.861762,0.281274,0.515978,-11.625070,208.164307,21.541065,-11.579224,1.000000,1.000000,
187008357,209.049348,25.564869,3,-0.966187,-0.038147,0.017822,0.254333,-0.011245,0.286217,-1.624600,0.225231,0.356687,-11.399831,208.535074,21.532512,-11.461562,1.000000,1.000000,
187019443,208.638948,25.564869,3,-0.967102,-0.036743,0.018494,0.250977,-0.214618,0.438737,-1.860240,0.129420,0.608466,-11.624967,208.792508,21.415404,-11.568734,1.000000,1.000000,
187028894,208.434022,25.564869,3,-0.968079,-0.035400,0.019165,0.247437,0.059213,0.414719,-1.842811,0.354729,0.446510,-11.604676,208.927254,21.264504,-11.592309,1.000000,1.000000,
187038640,208.752443,25.569405,3,-0.969055,-0.034119,0.019714,0.243713,-0.002883,0.387272,-1.446380,0.261532,0.424744,-11.212855,209.101263,21.135380,-11.343438,1.000000,1.000000,
187049345,209.255342,25.564869,3,-0.970032,-0.032898,0.020203,0.239868,0.027639,0.563786,-1.854735,0.396534,0.581145,-11.606071,209.355688,21.028643,-11.515690,1.000000,1.000000,
187058788,209.893831,25.573940,3,-0.971008,-0.031738,0.020630,0.236023,-0.062859,0.414960,-1.487078,0.220515,0.470727,-11.252758,209.654530,20.984170,-11.343238,1.000000,1.000000,
187068493,209.666261,25.564869,3,-0.971985,-0.030701,0.021057,0.232178,-0.234703,0.400520,-1.611006,0.061414,0.543049,-11.382070,209.859839,20.875036,-11.368707,1.000000,1.000000,
187079602,210.099305,25.573940,3,-0.972900,-0.029724,0.021423,0.228210,0.038712,0.407451,-1.733763,0.317354,0.430543,-11.506428,210.135860,20.774282,-11.459033,1.000000,1.000000,
187089103,209.780305,25.569405,3,-0.973938,-0.028870,0.021729,0.223999,-0.252694,0.231918,-1.429586,-0.036859,0.387891,-11.222893,210.266146,20.626756,-11.304158,1.000000,1.000000,
187098794,210.488740,25.564869,3,-0.974976,-0.028076,0.021912,0.219482,-0.293188,0.540388,-1.720045,0.068406,0.688456,-11.494370,210.507159,20.540713,-11.428911,1.000000,1.000000,
187109524,210.190736,25.569405,3,-0.975952,-0.027405,0.022156,0.215088,0.130387,0.214416,-1.601150,0.307008,0.213349,-11.383148,210.667661,20.382723,-11.398898,1.000000,1.000000,
187118986,210.807740,25.569405,3,-0.976929,-0.026794,0.022278,0.210754,0.043755,0.280923,-1.379268,0.238432,0.299107,-11.160450,210.886264,20.293288,-11.242507,1.000000,1.000000,
187128922,211.722291,25.564869,3,-0.977844,-0.026245,0.022339,0.206482,-0.110968,0.559671,-1.665488,0.218078,0.628715,-11.434291,211.243810,20.274591,-11.368288,1.000000,1.000000,
187139947,210.807740,25.569405,3,-0.978699,-0.025879,0.022339,0.202393,-0.028687,0.469134,-1.472457,0.246334,0.505152,-11.244367,211.384988,20.101112,-11.287014,1.000000,1.000000,
187149356,211.127290,25.573940,3,-0.979553,-0.025513,0.022339,0.198364,0.027215,0.241587,-1.356077,0.203373,0.269885,-11.139642,211.525360,19.966562,-11.190358,1.000000,1.000000,
187160132,211.835817,25.569405,3,-0.980347,-0.025269,0.022278,0.194397,-0.030809,0.368398,-1.424718,0.189706,0.409898,-11.203237,211.798024,19.881239,-11.198804,1.000000,1.000000,
187169596,211.424257,25.569405,3,-0.981140,-0.025146,0.022156,0.190430,-0.067920,0.436548,-1.272544,0.171709,0.486912,-11.048338,211.915676,19.733526,-11.100119,1.000000,1.000000,
187179211,212.544923,25.564869,3,-0.981934,-0.025085,0.021973,0.186279,-0.075617,0.590151,-1.599764,0.231327,0.644316,-11.366434,212.222671,19.696017,-11.274784,1.000000,1.000000,
187190242,212.360933,25.573940,3,-0.982727,-0.025146,0.021790,0.182068,0.139927,0.291777,-1.371827,0.306727,0.280812,-11.148919,212.465157,19.588627,-11.192232,1.000000,1.000000,
187199476,212.452913,25.569405,3,-0.983521,-0.025269,0.021545,0.177612,0.198458,0.169803,-1.362575,0.322587,0.146070,-11.144442,212.643272,19.484327,-11.160888,1.000000,1.000000,
187209318,212.452913,25.569405,3,-0.984375,-0.025391,0.021301,0.173096,0.021733,0.577312,-1.541221,0.300048,0.600655,-11.305243,212.798854,19.351459,-11.255567,1.000000,1.000000,
187220261,212.474458,25.578476,3,-0.985168,-0.025696,0.021057,0.168274,0.004088,0.492514,-1.199679,0.230451,0.519594,-10.969714,212.949225,19.194572,-11.068086,1.000000,1.000000,
187229759,213.480623,25.569405,3,-0.986023,-0.026062,0.020752,0.163391,0.119009,0.315458,-1.402965,0.290520,0.320060,-11.179139,213.230557,19.149621,-11.140920,1.000000,1.000000,
187239372,212.863466,25.569405,3,-0.986816,-0.026428,0.020447,0.158508,0.175616,0.325482,-1.345696,0.338435,0.318492,-11.119488,213.345417,19.000906,-11.126865,1.000000,1.000000,
187250409,213.778169,25.564869,3,-0.987549,-0.026855,0.020142,0.153564,0.115295,0.314965,-1.157125,0.269364,0.316540,-10.933997,213.635508,18.929075,-11.000367,1.000000,1.000000,
187259774,214.167756,25.555797,3,-0.988342,-0.027344,0.019775,0.148621,0.198814,0.652357,-1.451908,0.454883,0.639950,-11.205124,213.911965,18.885464,-11.134659,1.000000,1.000000,
187269629,213.799745,25.573940,3,-0.989075,-0.027893,0.019409,0.143494,0.212631,0.186566,-1.108619,0.317020,0.175998,-10.890331,214.076556,18.765370,-10.974412,1.000000,1.000000,
187280409,214.097291,25.569405,3,-0.989807,-0.028442,0.019043,0.138123,-0.021629,0.246394,-1.365553,0.111918,0.314923,-11.150506,214.282075,18.647578,-11.089906,1.000000,1.000000,
187289905,215.217714,25.564869,3,-0.990540,-0.028992,0.018738,0.132690,0.422719,0.409438,-1.435141,0.587695,0.357536,-11.196729,214.633871,18.648920,-11.159964,1.000000,1.000000,
187299590,215.125703,25.569405,3,-0.991272,-0.029663,0.018372,0.127136,0.318688,0.312986,-1.101124,0.438750,0.282729,-10.873002,214.906046,18.599589,-10.971753,1.000000,1.000000,
187310576,215.331270,25.569405,3,-0.991943,-0.030334,0.018066,0.121521,0.131334,0.384445,-1.310603,0.285861,0.414468,-11.082756,215.189333,18.525980,-11.044554,1.000000,1.000000,
187320099,215.011598,25.564869,3,-0.992615,-0.031067,0.017822,0.115662,0.103923,0.450988,-1.148616,0.260489,0.483694,-10.917697,215.331976,18.401564,-10.961353,1.000000,1.000000,
187329952,215.331270,25.569405,3,-0.993286,-0.031860,0.017639,0.109802,0.225801,0.263614,-1.115238,0.331062,0.280793,-10.893531,215.512629,18.294149,-10.916870,1.000000,1.000000,
187340668,215.559480,25.578476,3,-0.993896,-0.032654,0.017456,0.103943,0.164244,0.461505,-1.337187,0.314560,0.499076,-11.093973,215.716799,18.180643,-11.033026,1.000000,1.000000,
187350166,215.331270,25.569405,3,-0.994507,-0.033447,0.017334,0.097900,0.266544,0.240751,-1.113963,0.358120,0.257969,-10.883880,215.816790,18.032923,-10.935208,1.000000,1.000000,
187361059,215.742463,25.569405,3,-0.995056,-0.034363,0.017212,0.091797,0.248410,0.256057,-1.282062,0.346508,0.289437,-11.051779,215.998640,17.904120,-11.011663,1.000000,1.000000,
187370446,216.154725,25.569405,3,-0.995544,-0.035278,0.017151,0.085632,0.250839,0.457685,-1.259569,0.381704,0.497648,-11.014629,216.195459,17.818778,-11.013608,1.000000,1.000000,
187380006,215.948060,25.569405,3,-0.996033,-0.036194,0.017090,0.079468,0.079809,0.230806,-0.923487,0.159479,0.280722,-10.701953,216.319022,17.688286,-10.809204,1.000000,1.000000,
187391097,216.863038,25.564869,3,-0.996460,-0.037170,0.017090,0.073242,0.104853,0.459856,-1.257495,0.220478,0.528844,-11.017812,216.616389,17.627678,-10.946022,1.000000,1.000000,
187400661,216.955079,25.560333,3,-0.996887,-0.038208,0.017090,0.067017,0.352488,0.097833,-0.877309,0.401499,0.122638,-10.659864,216.847950,17.564924,-10.758338,1.000000,1.000000,
187410422,216.771028,25.569405,3,-0.997253,-0.039246,0.017151,0.060791,0.208461,0.234109,-1.092854,0.287003,0.296240,-10.868975,217.004477,17.450043,-10.830902,1.000000,1.000000,
187421238,216.771028,25.569405,3,-0.997559,-0.040283,0.017212,0.054443,0.061382,0.260780,-1.151781,0.137621,0.347403,-10.921097,217.148853,17.305434,-10.890059,1.000000,1.000000,
187430589,217.387880,25.569405,3,-0.997864,-0.041443,0.017395,0.047974,0.295205,0.081360,-0.855393,0.336307,0.128031,-10.634977,217.354990,17.233648,-10.722758,1.000000,1.000000,
187440310,217.502015,25.573940,3,-0.998047,-0.042542,0.017578,0.041565,0.243101,0.310206,-1.227511,0.324552,0.395729,-10.988508,217.549506,17.143537,-10.897055,1.000000,1.000000,
187451403,218.303010,25.564869,3,-0.998291,-0.043762,0.017822,0.035034,0.256654,0.090204,-0.924342,0.307123,0.159057,-10.706587,217.880133,17.109879,-10.772130,1.000000,1.000000,
187460788,217.892244,25.564869,3,-0.998413,-0.044922,0.018188,0.028503,0.247485,-0.035999,-0.913692,0.281476,0.030449,-10.710360,218.042509,17.010787,-10.731617,1.000000,1.000000,
187470612,218.097352,25.564869,3,-0.998535,-0.046143,0.018494,0.021912,0.122289,0.241960,-1.219962,0.181891,0.347336,-10.985447,218.219348,16.909113,-10.898096,1.000000,1.000000,
187481378,217.799684,25.569405,3,-0.998596,-0.047363,0.018982,0.015076,0.033098,0.088141,-0.910887,0.079021,0.174762,-10.697051,218.322192,16.746270,-10.766239,1.000000,1.000000,
187490840,218.919984,25.564869,3,-0.998596,-0.048523,0.019470,0.008362,0.297149,0.099903,-1.083049,0.344667,0.201679,-10.859257,218.592108,16.712297,-10.827244,1.000000,1.000000,
187500546,218.919984,25.564869,3,-0.998535,-0.049744,0.019958,0.001770,0.180828,0.200566,-1.010997,0.230608,0.303732,-10.783564,218.815180,16.644913,-10.798594,1.000000,1.000000,
187511646,219.239778,25.569405,3,-0.998474,-0.050903,0.020508,-0.004883,0.136218,0.008096,-0.866496,0.177173,0.101498,-10.653158,219.078801,16.574612,-10.703205,1.000000,1.000000,
187521007,218.919984,25.564869,3,-0.998352,-0.052002,0.021118,-0.011536,0.115853,0.054508,-1.056810,0.162624,0.169913,-10.840721,219.203727,16.454728,-10.793399,1.000000,1.000000,
187530830,219.033571,25.569405,3,-0.998169,-0.053162,0.021729,-0.018127,0.180918,-0.081816,-0.761404,0.219420,0.009194,-10.560988,219.333010,16.331616,-10.640968,1.000000,1.000000,
187542533,218.942048,25.573940,3,-0.997986,-0.054199,0.022339,-0.024780,-0.014230,0.072479,-0.908852,0.003890,0.158936,-10.694830,219.450150,16.162143,-10.676296,1.000000,1.000000,
187551430,219.126161,25.564869,3,-0.997742,-0.055237,0.023010,-0.031372,-0.167412,0.198111,-1.103710,-0.129405,0.315961,-10.881855,219.532786,16.027255,-10.811117,1.000000,1.000000,
187562962,219.970430,25.573940,3,-0.997437,-0.056213,0.023682,-0.037964,0.086599,-0.109913,-0.796926,0.114784,-0.021137,-10.603313,219.798937,15.954768,-10.674823,1.000000,1.000000,
187571650,219.856782,25.569405,3,-0.997070,-0.057129,0.024414,-0.044617,0.262470,0.040892,-1.038282,0.309429,0.189937,-10.816239,219.947977,15.867470,-10.767573,1.000000,1.000000,
187581168,220.565919,25.564869,3,-0.996704,-0.057983,0.025146,-0.051392,0.107174,0.146369,-0.985687,0.133392,0.278828,-10.752758,220.214170,15.835424,-10.757854,1.000000,1.000000,
187592081,220.474366,25.569405,3,-0.996216,-0.058777,0.025940,-0.058167,0.313779,-0.143143,-0.856647,0.369228,0.005619,-10.647301,220.435064,15.748508,-10.685345,1.000000,1.000000,
187601539,220.588014,25.573940,3,-0.995789,-0.059570,0.026672,-0.064758,-0.026456,0.119860,-1.001075,0.008546,0.246773,-10.782433,220.612167,15.664058,-10.749022,1.000000,1.000000,
187611187,220.680055,25.569405,3,-0.995239,-0.060242,0.027405,-0.071350,-0.048733,0.095661,-0.684167,-0.022630,0.180570,-10.474603,220.775523,15.570714,-10.569039,1.000000,1.000000,
187622171,220.793702,25.573940,3,-0.994690,-0.060913,0.028137,-0.077942,0.238694,-0.176065,-0.852746,0.303739,-0.024843,-10.647618,220.949310,15.455846,-10.620576,1.000000,1.000000,
187631628,221.389222,25.564869,3,-0.994080,-0.061523,0.028931,-0.084412,0.231785,-0.102254,-0.799807,0.288570,0.041605,-10.588787,221.177386,15.406311,-10.599725,1.000000,1.000000,
187641363,221.091462,25.569405,3,-0.993469,-0.062134,0.029663,-0.090820,0.061128,-0.059807,-0.672919,0.109975,0.047872,-10.470778,221.310794,15.294620,-10.515153,1.000000,1.000000,
187652312,221.183534,25.564869,3,-0.992798,-0.062683,0.030396,-0.097229,0.108775,0.126707,-0.984075,0.129744,0.274812,-10.756391,221.453771,15.162558,-10.673374,1.000000,1.000000,
187661766,221.594423,25.564869,3,-0.992126,-0.063171,0.031128,-0.103760,0.206736,-0.048117,-0.725290,0.249759,0.095997,-10.504691,221.622998,15.079509,-10.562739,1.000000,1.000000,
187671352,221.389222,25.564869,3,-0.991333,-0.063599,0.031860,-0.110291,0.240294,-0.195728,-0.851133,0.324159,-0.016575,-10.645129,221.723304,14.950868,-10.616777,1.000000,1.000000,
187682427,222.027955,25.573940,3,-0.990540,-0.063965,0.032593,-0.116821,0.085833,0.166019,-0.967334,0.089794,0.316516,-10.730963,221.945266,14.866463,-10.691667,1.000000,1.000000,
187691748,222.943483,25.569405,3,-0.989685,-0.064270,0.033325,-0.123413,0.107427,-0.169381,-0.566214,0.174829,-0.053666,-10.373452,222.270346,14.884980,-10.482955,1.000000,1.000000,
187701620,222.439943,25.573940,3,-0.988831,-0.064575,0.034058,-0.129883,0.358478,-0.233054,-0.751554,0.447713,-0.023744,-10.544550,222.448518,14.800144,-10.523353,1.000000,1.000000,
187712337,222.645143,25.573940,3,-0.987915,-0.064819,0.034790,-0.136353,0.265281,-0.054530,-0.706001,0.312084,0.120037,-10.487058,222.643348,14.710023,-10.499547,1.000000,1.000000,
187721845,223.035554,25.564869,3,-0.987000,-0.065002,0.035461,-0.142639,0.047112,-0.144917,-0.567320,0.120625,-0.036486,-10.369875,222.856193,14.656524,-10.414498,1.000000,1.000000,
187732621,222.737214,25.569405,3,-0.986084,-0.065125,0.036194,-0.148743,0.243230,0.010737,-0.888029,0.282772,0.209520,-10.652433,222.991221,14.528294,-10.570553,1.000000,1.000000,
187742112,223.057679,25.573940,3,-0.985046,-0.065247,0.036926,-0.154968,0.197451,-0.077459,-0.594918,0.241402,0.077023,-10.378109,223.141098,14.437518,-10.444334,1.000000,1.000000,
187751805,223.653352,25.564869,3,-0.984009,-0.065247,0.037659,-0.161255,0.088200,-0.129575,-0.795314,0.169967,0.017978,-10.594004,223.376424,14.393166,-10.542496,1.000000,1.000000,
187762865,222.850862,25.573940,3,-0.982971,-0.065247,0.038452,-0.167480,0.039787,-0.040157,-0.654566,0.090608,0.070470,-10.449626,223.436553,14.218051,-10.481587,1.000000,1.000000,
187772094,222.943483,25.569405,3,-0.981873,-0.065125,0.039185,-0.173584,0.171940,-0.010266,-0.560800,0.200554,0.129871,-10.340995,223.474989,14.065718,-10.389379,1.000000,1.000000,
187781978,223.972230,25.569405,3,-0.980774,-0.064941,0.039917,-0.179565,0.140174,-0.058953,-0.762678,0.196561,0.112001,-10.548583,223.706564,14.017930,-10.493794,1.000000,1.000000,
187792710,223.149232,25.569405,3,-0.979675,-0.064758,0.040649,-0.185547,0.120259,-0.095557,-0.533241,0.180281,0.038619,-10.328502,223.752056,13.843864,-10.385386,1.000000,1.000000,
187802257,223.561250,25.569405,3,-0.978455,-0.064514,0.041443,-0.191711,0.115627,-0.034958,-0.557874,0.157840,0.094748,-10.347186,223.848021,13.723160,-10.360333,1.000000,1.000000,
187812078,223.561250,25.569405,3,-0.977173,-0.064209,0.042236,-0.198059,0.146650,0.111413,-0.835942,0.144202,0.285859,-10.602302,223.928595,13.586413,-10.519034,1.000000,1.000000,
187823112,224.064332,25.564869,3,-0.975830,-0.063904,0.043030,-0.204346,0.139069,-0.104413,-0.444327,0.203405,0.027437,-10.240195,224.103317,13.488694,-10.336151,1.000000,1.000000,
187832507,224.497957,25.573940,3,-0.974487,-0.063477,0.043823,-0.210815,0.161177,-0.081828,-0.741439,0.222421,0.097283,-10.519746,224.303494,13.435404,-10.456563,1.000000,1.000000,
187842258,224.178010,25.569405,3,-0.973083,-0.063049,0.044617,-0.217102,0.105230,0.127826,-0.758031,0.083221,0.267958,-10.520539,224.410509,13.318517,-10.498523,1.000000,1.000000,
187853296,224.795839,25.569405,3,-0.971680,-0.062561,0.045471,-0.223389,0.152239,-0.027365,-0.450946,0.174430,0.106467,-10.227665,224.629075,13.249196,-10.320874,1.000000,1.000000,
187862630,224.703737,25.573940,3,-0.970215,-0.062073,0.046265,-0.229614,0.140834,0.160725,-0.722002,0.104094,0.312357,-10.476959,224.766265,13.159969,-10.423245,1.000000,1.000000,
187872315,225.413179,25.569405,3,-0.968689,-0.061462,0.047058,-0.235840,0.158472,-0.107626,-0.424700,0.223132,0.039202,-10.207611,225.014340,13.134765,-10.281815,1.000000,1.000000,
187883369,224.817933,25.578476,3,-0.967163,-0.060852,0.047852,-0.242004,0.178556,-0.069409,-0.673934,0.233993,0.124769,-10.446792,225.122106,12.997138,-10.390019,1.000000,1.000000,
187892750,225.207399,25.569405,3,-0.965637,-0.060181,0.048645,-0.248108,0.098484,0.168270,-0.535212,0.040127,0.271412,-10.297873,225.259559,12.910420,-10.329583,1.000000,1.000000,
187903580,225.207399,25.569405,3,-0.964050,-0.059448,0.049438,-0.254150,0.038434,-0.053056,-0.496197,0.088459,0.047959,-10.286721,225.389007,12.793062,-10.301471,1.000000,1.000000,
187913035,224.681642,25.564869,3,-0.962524,-0.058716,0.050171,-0.260010,0.216913,0.052781,-0.665041,0.207395,0.249220,-10.420992,225.376989,12.612764,-10.379864,1.000000,1.000000,
187922752,226.122163,25.564869,3,-0.960938,-0.057922,0.050964,-0.265930,0.167472,0.016965,-0.415554,0.160652,0.161490,-10.183662,225.638575,12.598789,-10.251178,1.000000,1.000000,
187933429,225.435304,25.578476,3,-0.959290,-0.057068,0.051697,-0.271790,0.154600,-0.039771,-0.538416,0.190135,0.130513,-10.319886,225.734439,12.465580,-10.296242,1.000000,1.000000,
187942891,226.145326,25.573940,3,-0.957642,-0.056274,0.052490,-0.277588,0.162338,0.107707,-0.570475,0.119326,0.255990,-10.339630,225.928864,12.414924,-10.324697,1.000000,1.000000,
187952569,225.846895,25.578476,3,-0.955933,-0.055420,0.053223,-0.283325,0.093773,-0.055126,-0.290457,0.131789,0.049621,-10.083494,226.033213,12.308039,-10.166500,1.000000,1.000000,
187963571,226.556398,25.573940,3,-0.954224,-0.054565,0.053894,-0.289062,0.140411,0.156694,-0.672511,0.080085,0.306089,-10.438179,226.265941,12.252368,-10.344684,1.000000,1.000000,
187973096,226.854341,25.569405,3,-0.952515,-0.053650,0.054626,-0.294739,0.187466,0.019396,-0.465213,0.173222,0.188072,-10.237422,226.492385,12.222631,-10.274331,1.000000,1.000000,
187982945,226.350587,25.573940,3,-0.950745,-0.052734,0.055359,-0.300415,0.171264,-0.016716,-0.481615,0.182554,0.154801,-10.257434,226.585725,12.105462,-10.263249,1.000000,1.000000,
187993893,226.740114,25.564869,3,-0.948975,-0.051819,0.056091,-0.306030,0.174077,0.206030,-0.598502,0.063575,0.354705,-10.357493,226.746546,12.009628,-10.325060,1.000000,1.000000,
188003236,227.082277,25.578476,3,-0.947144,-0.050842,0.056824,-0.311646,0.113344,-0.056726,-0.290626,0.147119,0.068210,-10.077651,226.921209,11.954361,-10.162791,1.000000,1.000000,
188013104,227.471803,25.569405,3,-0.945251,-0.049866,0.057556,-0.317261,0.189404,0.002958,-0.503193,0.188792,0.189729,-10.272952,227.141739,11.915645,-10.235039,1.000000,1.000000,
188024147,227.152284,25.564869,3,-0.943359,-0.048889,0.058289,-0.322876,0.136528,0.154588,-0.406875,0.046704,0.265632,-10.176504,227.274681,11.804438,-10.196648,1.000000,1.000000,
188033590,227.173860,25.573940,3,-0.941406,-0.047852,0.059021,-0.328552,0.212111,-0.206400,-0.220711,0.315292,0.004628,-10.000455,227.366826,11.698416,-10.067971,1.000000,1.000000,
188043167,227.380739,25.573940,3,-0.939453,-0.046875,0.059753,-0.334106,0.188480,0.029070,-0.583990,0.178539,0.220785,-10.350670,227.480979,11.600851,-10.253385,1.000000,1.000000,
188054210,227.173860,25.573940,3,-0.937561,-0.045837,0.060425,-0.339539,0.147224,0.012116,-0.336200,0.136321,0.148753,-10.112457,227.550962,11.454353,-10.160956,1.000000,1.000000,
188063622,228.203553,25.573940,3,-0.935547,-0.044800,0.061157,-0.344971,0.220401,-0.036191,-0.411945,0.222562,0.174685,-10.178337,227.780555,11.433895,-10.172353,1.000000,1.000000,
188074468,227.678163,25.569405,3,-0.933533,-0.043762,0.061890,-0.350464,0.178878,0.147043,-0.593665,0.085753,0.307139,-10.356988,227.884770,11.309969,-10.293450,1.000000,1.000000,
188083650,227.791871,25.573940,3,-0.931458,-0.042664,0.062561,-0.355896,0.038760,-0.119792,-0.156437,0.120544,-0.042142,-9.955447,227.970815,11.207968,-10.071764,1.000000,1.000000,
188093404,227.357576,25.564869,3,-0.929321,-0.041626,0.063293,-0.361450,0.175170,0.181530,-0.537501,0.058180,0.321724,-10.301031,227.964865,11.037888,-10.222135,1.000000,1.000000,
188104323,228.317292,25.578476,3,-0.927124,-0.040527,0.063965,-0.367004,0.190506,0.059039,-0.242479,0.117349,0.208725,-10.011373,228.150789,10.968322,-10.083902,1.000000,1.000000,
188113800,228.111451,25.578476,3,-0.924927,-0.039490,0.064636,-0.372498,0.133085,-0.056714,-0.310591,0.159905,0.091105,-10.090919,228.246915,10.868161,-10.088504,1.000000,1.000000,
188123443,227.791871,25.573940,3,-0.922729,-0.038391,0.065369,-0.377930,0.081522,0.124902,-0.462532,0.017003,0.205887,-10.243958,228.266066,10.717623,-10.190464,1.000000,1.000000,
188135446,228.409425,25.573940,3,-0.920471,-0.037354,0.066040,-0.383301,0.147894,-0.016415,-0.225708,0.110628,0.147439,-10.002980,228.420856,10.613603,-10.067498,1.000000,1.000000,
188144315,228.409425,25.573940,3,-0.918213,-0.036316,0.066711,-0.388672,0.269474,0.094067,-0.512016,0.167737,0.326428,-10.265949,228.512431,10.521055,-10.197656,1.000000,1.000000,
188153912,228.615266,25.573940,3,-0.915955,-0.035217,0.067383,-0.394043,0.116788,0.154576,-0.386910,0.004318,0.238286,-10.166007,228.632187,10.435238,-10.176898,1.000000,1.000000,
188165515,228.729524,25.578476,3,-0.913574,-0.034119,0.068115,-0.399475,0.214878,-0.001548,-0.237811,0.139157,0.206201,-10.006358,228.770835,10.330042,-10.065046,1.000000,1.000000,
188174363,229.232850,25.573940,3,-0.911194,-0.033020,0.068787,-0.404846,0.173778,0.185718,-0.469021,0.021402,0.309660,-10.240265,228.948393,10.293225,-10.179964,1.000000,1.000000,
188183810,229.027498,25.573940,3,-0.908813,-0.031921,0.069458,-0.410217,0.123352,0.042560,-0.210580,0.072717,0.147228,-9.993170,229.059998,10.207819,-10.057451,1.000000,1.000000,
188194897,229.439241,25.573940,3,-0.906372,-0.030823,0.070129,-0.415466,0.141837,0.100439,-0.461427,0.069811,0.227863,-10.238491,229.243535,10.137080,-10.176188,1.000000,1.000000,
188204104,229.850465,25.573940,3,-0.903931,-0.029785,0.070801,-0.420776,0.307518,0.080386,-0.383679,0.178908,0.324544,-10.138085,229.450083,10.113563,-10.151195,1.000000,1.000000,
188213958,229.439241,25.573940,3,-0.901428,-0.028687,0.071472,-0.426025,0.044221,0.040899,-0.110923,0.009790,0.074745,-9.909028,229.547242,10.014676,-9.992365,1.000000,1.000000,
188224734,229.552980,25.578476,3,-0.898865,-0.027588,0.072144,-0.431335,0.193797,0.055501,-0.438828,0.128183,0.233874,-10.200807,229.655633,9.905472,-10.129076,1.000000,1.000000,
188234250,229.210725,25.564869,3,-0.896362,-0.026550,0.072876,-0.436523,0.139053,0.108814,-0.324466,0.043781,0.212761,-10.097593,229.666132,9.758373,-10.108429,1.000000,1.000000,
188245106,229.965242,25.578476,3,-0.893799,-0.025452,0.073547,-0.441650,0.024064,0.071836,-0.231144,-0.011658,0.094439,-10.023404,229.827498,9.683468,-10.052663,1.000000,1.000000,
188254525,230.056855,25.573940,3,-0.891235,-0.024414,0.074219,-0.446777,0.235972,0.011364,-0.416145,0.178932,0.237664,-10.174496,229.961207,9.614035,-10.132568,1.000000,1.000000,
188264135,230.034761,25.564869,3,-0.888672,-0.023315,0.074951,-0.451843,0.242491,-0.118546,-0.140029,0.259518,0.136224,-9.898033,230.066917,9.527296,-9.978743,1.000000,1.000000,
188275152,229.873109,25.583012,3,-0.886047,-0.022278,0.075623,-0.456909,0.188150,0.106426,-0.344685,0.062197,0.253199,-10.115873,230.134971,9.394026,-10.068683,1.000000,1.000000,
188284546,229.965242,25.578476,3,-0.883423,-0.021240,0.076294,-0.461853,0.179458,0.082726,-0.283599,0.070246,0.225195,-10.057347,230.190988,9.279998,-10.061249,1.000000,1.000000,
188294395,230.056855,25.573940,3,-0.880737,-0.020203,0.076965,-0.466858,0.050454,-0.039362,-0.084677,0.077183,0.028459,-9.877697,230.256808,9.167465,-9.940863,1.000000,1.000000,
188305149,230.263276,25.573940,3,-0.878113,-0.019165,0.077637,-0.471741,0.151468,0.213587,-0.431678,-0.035180,0.288488,-10.215652,230.356004,9.058428,-10.121089,1.000000,1.000000,
188314629,230.468629,25.573940,3,-0.875427,-0.018127,0.078369,-0.476624,0.234196,-0.005567,-0.208285,0.157228,0.216317,-9.965363,230.462529,8.976956,-10.018953,1.000000,1.000000,
188324357,230.880433,25.573940,3,-0.872742,-0.017090,0.079041,-0.481445,0.221692,0.172042,-0.350666,0.018199,0.315721,-10.117333,230.627591,8.926023,-10.083476,1.000000,1.000000,
188335454,230.675050,25.573940,3,-0.870056,-0.016052,0.079712,-0.486267,0.144186,0.018072,-0.169545,0.085940,0.147703,-9.944904,230.734924,8.820967,-9.992590,1.000000,1.000000,
188344950,230.972596,25.569405,3,-0.867310,-0.015015,0.080383,-0.490967,0.160557,0.055796,-0.172939,0.062663,0.180060,-9.949278,230.862763,8.753955,-9.964182,1.000000,1.000000,
188354682,231.292756,25.573940,3,-0.864624,-0.014038,0.081055,-0.495667,0.230663,0.065513,-0.361594,0.112181,0.263677,-10.126903,231.027969,8.704450,-10.070904,1.000000,1.000000,
188365401,231.108979,25.583012,3,-0.861877,-0.013000,0.081726,-0.500305,0.109168,-0.044163,-0.085185,0.108135,0.087257,-9.867412,231.135884,8.607805,-9.937440,1.000000,1.000000,
188374858,231.498140,25.573940,3,-0.859131,-0.012024,0.082336,-0.504944,0.182659,0.043402,-0.280374,0.090987,0.212625,-10.055783,231.284672,8.554330,-10.015056,1.000000,1.000000,
188384602,231.292756,25.573940,3,-0.856445,-0.011047,0.083008,-0.509460,0.220847,0.163980,-0.251685,-0.002879,0.298403,-10.021736,231.369062,8.457596,-10.019437,1.000000,1.000000,
188395675,230.972596,25.569405,3,-0.853699,-0.010010,0.083618,-0.513977,0.129371,-0.057207,-0.064751,0.122246,0.090484,-9.838799,231.387874,8.303732,-9.900964,1.000000,1.000000,
188405159,231.407045,25.578476,3,-0.850891,-0.009033,0.084290,-0.518433,0.207553,0.103213,-0.325057,0.054042,0.267980,-10.095366,231.469754,8.210126,-10.028466,1.000000,1.000000,
188414867,231.704591,25.573940,3,-0.848145,-0.007996,0.084961,-0.522888,0.114167,0.129584,-0.080069,-0.044945,0.168490,-9.872712,231.592961,8.141068,-9.926311,1.000000,1.000000,
188425647,231.086335,25.573940,3,-0.845337,-0.007019,0.085571,-0.527283,0.130464,-0.081706,-0.003750,0.137415,0.077456,-9.781185,231.585290,7.978147,-9.831130,1.000000,1.000000,
188435125,231.818849,25.578476,3,-0.842529,-0.005981,0.086243,-0.531616,0.184611,0.142525,-0.308317,-0.003975,0.265161,-10.092734,231.704182,7.909276,-10.002707,1.000000,1.000000,
188444926,232.116426,25.573940,3,-0.839722,-0.005005,0.086853,-0.535950,0.100659,0.049311,-0.033858,0.002231,0.116717,-9.820341,231.858400,7.859896,-9.883097,1.000000,1.000000,
188455959,232.322358,25.573940,3,-0.836914,-0.003967,0.087524,-0.540222,0.157948,0.100764,-0.245450,0.011716,0.215934,-10.025846,232.031391,7.801899,-9.976720,1.000000,1.000000,
188465403,232.116426,25.573940,3,-0.834106,-0.002991,0.088135,-0.544495,0.159464,0.080296,-0.233940,0.026062,0.203182,-10.015450,232.120553,7.717122,-10.002121,1.000000,1.000000,
188476202,231.932618,25.583012,3,-0.831299,-0.002014,0.088806,-0.548645,0.123769,0.011611,-0.070395,0.052883,0.132119,-9.854904,232.168117,7.589224,-9.905567,1.000000,1.000000,
188485667,232.208589,25.569405,3,-0.828491,-0.001038,0.089417,-0.552795,0.182673,0.158963,-0.270337,-0.035266,0.258197,-10.050283,232.247074,7.498728,-10.000481,1.000000,1.000000,
188495251,232.322358,25.573940,3,-0.825745,-0.000122,0.090088,-0.556824,0.130464,-0.081706,-0.003750,0.127532,0.097320,-9.773656,232.332595,7.413665,-9.851713,1.000000,1.000000,
188506353,232.414521,25.569405,3,-0.822937,0.000854,0.090698,-0.560852,0.163250,0.011635,-0.110325,0.065877,0.169177,-9.886120,232.429634,7.313197,-9.874279,1.000000,1.000000,
188515595,232.322358,25.573940,3,-0.820190,0.001770,0.091309,-0.564758,0.171957,0.150894,-0.161374,-0.053237,0.238464,-9.951553,232.476701,7.208792,-9.924961,1.000000,1.000000,
188525374,232.642579,25.578476,3,-0.817383,0.002747,0.091919,-0.568726,0.109038,-0.062862,0.024501,0.100879,0.076124,-9.757441,232.577784,7.132215,-9.815089,1.000000,1.000000,
188536223,232.918550,25.564869,3,-0.814514,0.003723,0.092529,-0.572693,0.154916,0.141701,-0.268471,-0.030863,0.222303,-10.053469,232.718367,7.061798,-9.971434,1.000000,1.000000,
188545687,232.734224,25.573940,3,-0.811707,0.004639,0.093140,-0.576599,0.176082,0.085458,-0.077352,-0.002832,0.207953,-9.858497,232.787733,6.970360,-9.897362,1.000000,1.000000,
188555376,232.734224,25.573940,3,-0.808838,0.005615,0.093689,-0.580505,0.183851,0.135269,-0.219234,-0.029978,0.238693,-10.006476,232.844780,6.867321,-9.968927,1.000000,1.000000,
188566357,233.032319,25.569405,3,-0.805969,0.006531,0.094299,-0.584412,0.188314,0.073058,-0.174805,0.020881,0.222104,-9.957271,232.954706,6.779170,-9.961282,1.000000,1.000000,
188575819,233.352571,25.573940,3,-0.803101,0.007446,0.094849,-0.588196,0.168006,-0.065245,-0.005701,0.113502,0.145739,-9.769762,233.092937,6.732632,-9.835668,1.000000,1.000000,
188585686,232.962800,25.583012,3,-0.800293,0.008301,0.095398,-0.591919,0.151123,0.175382,-0.202409,-0.083937,0.214001,-9.998084,233.134514,6.619176,-9.942192,1.000000,1.000000,
188596420,232.848512,25.578476,3,-0.797424,0.009216,0.095947,-0.595642,0.160551,0.020816,0.016738,0.026062,0.158160,-9.764676,233.151451,6.481852,-9.825766,1.000000,1.000000,
188606011,233.168733,25.583012,3,-0.794556,0.010071,0.096558,-0.599365,0.187916,-0.063621,-0.045462,0.120699,0.171338,-9.813371,233.216404,6.389723,-9.817637,1.000000,1.000000,
188615743,234.062593,25.569405,3,-0.791748,0.010986,0.097107,-0.603027,0.108442,0.214682,-0.165704,-0.140184,0.182922,-9.971341,233.436513,6.389088,-9.918443,1.000000,1.000000,
188626828,233.466340,25.578476,3,-0.788879,0.011841,0.097656,-0.606628,0.124102,-0.020145,0.079689,0.039966,0.103856,-9.700966,233.512335,6.284834,-9.775806,1.000000,1.000000,
188636073,233.764985,25.573940,3,-0.786011,0.012695,0.098206,-0.610229,0.178528,0.073858,-0.174720,0.001929,0.209219,-9.958794,233.617328,6.221903,-9.895821,1.000000,1.000000,
188645952,234.062593,25.569405,3,-0.783142,0.013611,0.098816,-0.613770,0.181574,0.148482,-0.141662,-0.067916,0.227375,-9.938343,233.761657,6.174353,-9.923708,1.000000,1.000000,
188656727,233.992555,25.583012,3,-0.780273,0.014465,0.099365,-0.617310,0.127133,-0.061081,0.102710,0.072568,0.101491,-9.669570,233.870874,6.096274,-9.757026,1.000000,1.000000,
188666205,233.970430,25.573940,3,-0.777405,0.015320,0.099976,-0.620789,0.201991,0.154943,-0.240812,-0.063362,0.262062,-10.030804,233.946836,6.012573,-9.936588,1.000000,1.000000,
188675993,234.199037,25.583012,3,-0.774475,0.016235,0.100525,-0.624329,0.163414,-0.021733,0.059555,0.051539,0.153825,-9.717450,234.052439,5.946146,-9.792862,1.000000,1.000000,
188687050,233.580629,25.583012,3,-0.771545,0.017090,0.101074,-0.627869,0.181221,0.029696,-0.112107,0.030673,0.201773,-9.894317,234.029215,5.783336,-9.859405,1.000000,1.000000,
188696359,234.084199,25.578476,3,-0.768616,0.018005,0.101624,-0.631348,0.171788,0.149282,-0.141577,-0.077967,0.217756,-9.935267,234.092917,5.697170,-9.909160,1.000000,1.000000,
188706192,233.672822,25.578476,3,-0.765625,0.018860,0.102173,-0.634827,0.122332,-0.002095,0.097873,0.011501,0.116845,-9.687419,234.069840,5.554114,-9.763729,1.000000,1.000000,
188717261,234.794832,25.573940,3,-0.762634,0.019775,0.102722,-0.638306,0.142417,0.036122,-0.151361,0.018725,0.169392,-9.938359,234.266490,5.526400,-9.878260,1.000000,1.000000,
188726677,234.724763,25.587547,3,-0.759644,0.020630,0.103271,-0.641785,0.151202,0.141208,-0.022631,-0.102730,0.181620,-9.820928,234.403943,5.486970,-9.840656,1.000000,1.000000,
188738311,234.199037,25.583012,3,-0.756592,0.021484,0.103821,-0.645203,0.123008,0.004355,0.018688,-0.005022,0.140237,-9.767591,234.428716,5.349912,-9.792736,1.000000,1.000000,
188747103,234.382875,25.573940,3,-0.753601,0.022400,0.104370,-0.648621,0.131507,0.159089,-0.102453,-0.108647,0.170451,-9.911253,234.466771,5.257300,-9.870468,1.000000,1.000000,
188756712,234.268556,25.569405,3,-0.750549,0.023254,0.104919,-0.651978,0.121825,-0.006932,0.157261,-0.002428,0.109312,-9.634590,234.479746,5.142089,-9.715764,1.000000,1.000000,
188768448,235.412782,25.573940,3,-0.747559,0.024109,0.105469,-0.655334,0.187806,0.068221,-0.115416,-0.042084,0.224739,-9.902225,234.714215,5.131669,-9.838055,1.000000,1.000000,
188777293,234.176393,25.573940,3,-0.744507,0.024963,0.106018,-0.658691,0.154572,0.103496,-0.039203,-0.072600,0.174486,-9.838598,234.658435,4.981752,-9.838413,1.000000,1.000000,
188786846,234.291230,25.578476,3,-0.741455,0.025757,0.106506,-0.661987,0.141740,0.029672,-0.072176,0.006665,0.154348,-9.861849,234.636844,4.845723,-9.853786,1.000000,1.000000,
188797607,234.610444,25.583012,3,-0.738403,0.026550,0.107056,-0.665283,0.202238,0.122382,-0.080830,-0.085134,0.225009,-9.874327,234.683474,4.736494,-9.867258,1.000000,1.000000,
188806941,235.000276,25.573940,3,-0.735352,0.027344,0.107605,-0.668518,0.107224,-0.062706,0.142472,0.046921,0.087092,-9.636939,234.786587,4.682938,-9.716198,1.000000,1.000000,
188816687,234.702638,25.578476,3,-0.732300,0.028137,0.108154,-0.671753,0.156849,0.090283,-0.116775,-0.044987,0.177682,-9.914757,234.816040,4.576824,-9.846427,1.000000,1.000000,
188827738,234.610444,25.583012,3,-0.729187,0.028931,0.108704,-0.674988,0.135333,0.073341,0.111050,-0.083612,0.129416,-9.687090,234.827542,4.446541,-9.741924,1.000000,1.000000,
188837223,235.114595,25.578476,3,-0.726074,0.029785,0.109314,-0.678223,0.125702,-0.039807,0.081302,0.036959,0.112284,-9.698540,234.923041,4.387587,-9.713468,1.000000,1.000000,
188846942,235.412782,25.573940,3,-0.722900,0.030579,0.109863,-0.681458,0.150740,0.154264,-0.063030,-0.129180,0.175572,-9.877315,235.056876,4.347260,-9.820928,1.000000,1.000000,
188857935,235.114595,25.578476,3,-0.719788,0.031372,0.110413,-0.684631,0.125026,-0.046257,0.160486,0.021652,0.110519,-9.616831,235.114901,4.247982,-9.687067,1.000000,1.000000,
188867186,235.412782,25.573940,3,-0.716553,0.032166,0.110962,-0.687866,0.181976,0.001972,-0.011513,0.013790,0.186625,-9.790166,235.209560,4.191708,-9.754685,1.000000,1.000000,
188876919,235.022920,25.583012,3,-0.713379,0.032959,0.111511,-0.691040,0.174651,0.106733,-0.098760,-0.078457,0.191954,-9.902033,235.214955,4.074169,-9.851326,1.000000,1.000000,
188887984,235.022920,25.583012,3,-0.710205,0.033813,0.112061,-0.694214,0.071405,-0.115110,0.226025,0.071835,0.042127,-9.546221,235.223506,3.946717,-9.651218,1.000000,1.000000,
188897456,235.228395,25.583012,3,-0.706970,0.034607,0.112610,-0.697388,0.179283,0.046134,-0.074127,-0.020417,0.194550,-9.861040,235.261352,3.853797,-9.788834,1.000000,1.000000,
188907207,235.320588,25.578476,3,-0.703735,0.035400,0.113098,-0.700500,0.146536,-0.064294,0.122337,0.038471,0.135836,-9.656104,235.309566,3.766389,-9.701780,1.000000,1.000000,
188918154,235.022920,25.583012,3,-0.700500,0.036255,0.113647,-0.703613,0.127595,-0.074137,0.143109,0.045058,0.110883,-9.629372,235.296542,3.628469,-9.654291,1.000000,1.000000,
188927477,236.144563,25.578476,3,-0.697266,0.037109,0.114197,-0.706665,0.187299,0.063383,-0.056028,-0.055428,0.199212,-9.849953,235.488758,3.634382,-9.782616,1.000000,1.000000,
188937332,235.526582,25.578476,3,-0.694031,0.037903,0.114746,-0.709717,0.142659,-0.031420,0.198297,-0.013440,0.124628,-9.590944,235.531197,3.544152,-9.656904,1.000000,1.000000,
188948257,236.144563,25.578476,3,-0.690796,0.038757,0.115295,-0.712769,0.159880,0.049347,-0.093754,-0.029549,0.167921,-9.883953,235.684183,3.505767,-9.805816,1.000000,1.000000,
188957715,235.136720,25.587547,3,-0.687561,0.039612,0.115845,-0.715759,0.137441,0.058516,0.053274,-0.066381,0.134921,-9.748272,235.614367,3.350451,-9.768077,1.000000,1.000000,
188967323,235.206788,25.573940,3,-0.684265,0.040466,0.116333,-0.718750,0.186648,-0.075714,0.103009,0.041065,0.176521,-9.661467,235.569827,3.211219,-9.698157,1.000000,1.000000,
188978362,236.144563,25.578476,3,-0.681030,0.041321,0.116882,-0.721680,0.153479,0.127995,-0.100204,-0.108630,0.163873,-9.910171,235.712285,3.166875,-9.837208,1.000000,1.000000,
188987826,235.824769,25.573940,3,-0.677856,0.042175,0.117371,-0.724548,0.127088,-0.078975,0.202497,0.030309,0.108784,-9.576461,235.762908,3.089313,-9.666192,1.000000,1.000000,
188997562,235.939088,25.578476,3,-0.674622,0.043030,0.117920,-0.727417,0.184585,-0.042996,0.060998,0.011778,0.184302,-9.711515,235.825503,3.014823,-9.695917,1.000000,1.000000,
189008319,235.846895,25.583012,3,-0.671326,0.043884,0.118408,-0.730286,0.205941,0.052915,0.052682,-0.079722,0.194853,-9.743641,235.861373,2.912451,-9.727218,1.000000,1.000000,
189017795,235.939088,25.578476,3,-0.668030,0.044739,0.118896,-0.733154,0.147167,-0.075738,0.142940,0.031388,0.140508,-9.634898,235.903096,2.830113,-9.666668,1.000000,1.000000,
189028572,236.259431,25.583012,3,-0.664734,0.045654,0.119446,-0.736023,0.156172,0.083834,-0.037590,-0.083100,0.159961,-9.839752,235.999753,2.764612,-9.780187,1.000000,1.000000,
189038015,236.144563,25.578476,3,-0.661438,0.046509,0.119934,-0.738892,0.065720,-0.047099,0.230280,-0.014095,0.044597,-9.564289,236.052565,2.691058,-9.638586,1.000000,1.000000,
189047723,235.846895,25.583012,3,-0.658142,0.047424,0.120422,-0.741699,0.139548,0.043691,-0.004502,-0.057800,0.137692,-9.800040,236.039724,2.572515,-9.744479,1.000000,1.000000,
189058822,236.144563,25.578476,3,-0.654846,0.048340,0.120972,-0.744507,0.135671,0.076566,0.071458,-0.103955,0.124693,-9.738457,236.087310,2.476288,-9.740529,1.000000,1.000000,
189068111,235.939088,25.578476,3,-0.651489,0.049194,0.121521,-0.747253,0.151292,-0.141174,0.226962,0.067769,0.141368,-9.528244,236.082149,2.370749,-9.601298,1.000000,1.000000,
189077967,236.031282,25.573940,3,-0.648193,0.050110,0.122009,-0.749939,0.117030,0.087035,-0.037252,-0.093192,0.112034,-9.848451,236.095505,2.267910,-9.763398,1.000000,1.000000,
189088691,236.351106,25.578476,3,-0.644897,0.050964,0.122559,-0.752625,0.107686,-0.075762,0.182870,0.014253,0.102930,-9.599825,236.167143,2.193894,-9.656115,1.000000,1.000000,
189098199,236.351106,25.578476,3,-0.641602,0.051880,0.123047,-0.755310,0.150199,-0.116675,0.165961,0.050522,0.144719,-9.597112,236.222023,2.123812,-9.617416,1.000000,1.000000,
189108039,236.053407,25.583012,3,-0.638367,0.052795,0.123596,-0.757935,0.160805,0.023235,-0.012957,-0.041086,0.159126,-9.807964,236.210876,2.008134,-9.742391,1.000000,1.000000,
189119097,236.443300,25.573940,3,-0.635071,0.053650,0.124146,-0.760498,0.058236,-0.192159,0.232644,0.113480,0.065328,-9.520593,236.276039,1.929107,-9.596920,1.000000,1.000000,
189128394,236.351106,25.578476,3,-0.631836,0.054565,0.124695,-0.763062,0.183746,-0.016078,-0.029697,-0.013719,0.194453,-9.812999,236.307601,1.846457,-9.738639,1.000000,1.000000,
189138248,235.754701,25.587547,3,-0.628601,0.055481,0.125305,-0.765564,0.140641,0.019192,0.056499,-0.057711,0.128714,-9.737508,236.221823,1.687594,-9.737900,1.000000,1.000000,
189149304,236.443300,25.573940,3,-0.625366,0.056335,0.125854,-0.768066,0.093254,-0.129923,0.148284,0.071583,0.102505,-9.617366,236.281381,1.606341,-9.658845,1.000000,1.000000,
189158721,236.557100,25.578476,3,-0.622192,0.057251,0.126404,-0.770447,0.187130,0.061771,-0.036231,-0.085964,0.182551,-9.833492,236.347715,1.545571,-9.773389,1.000000,1.000000,
189168298,236.236757,25.573940,3,-0.619019,0.058167,0.127014,-0.772888,0.106463,-0.069962,0.231554,-0.017389,0.098421,-9.553383,236.341317,1.441437,-9.629095,1.000000,1.000000,
189179309,236.351106,25.578476,3,-0.615845,0.059082,0.127563,-0.775269,0.144434,-0.014489,-0.009563,-0.017720,0.145973,-9.792778,236.358422,1.334792,-9.736449,1.000000,1.000000,
189188804,236.649324,25.573940,3,-0.612610,0.059998,0.128174,-0.777649,0.177677,0.030816,0.113937,-0.097266,0.156356,-9.688825,236.425149,1.276370,-9.705212,1.000000,1.000000,
189198540,236.259431,25.583012,3,-0.609375,0.060913,0.128723,-0.779968,0.170863,-0.142774,0.226793,0.036551,0.175430,-9.528271,236.406110,1.164722,-9.589163,1.000000,1.000000,
189209262,236.464906,25.583012,3,-0.606140,0.061890,0.129333,-0.782349,0.177513,0.064184,-0.055943,-0.084736,0.172895,-9.860837,236.429029,1.065750,-9.767345,1.000000,1.000000,
189218722,236.854799,25.573940,3,-0.602905,0.062805,0.129883,-0.784668,0.183909,-0.049445,0.140183,-0.041747,0.179070,-9.638772,236.518417,1.023542,-9.683016,1.000000,1.000000,
189228433,236.762605,25.578476,3,-0.599670,0.063782,0.130493,-0.786987,0.188586,-0.092151,0.065029,0.020448,0.196301,-9.703839,236.573599,0.957038,-9.696672,1.000000,1.000000,
189239455,236.167207,25.587547,3,-0.596436,0.064758,0.131104,-0.789246,0.161306,-0.006908,0.117331,-0.064966,0.143038,-9.674633,236.507465,0.804480,-9.682219,1.000000,1.000000,
189249010,236.557100,25.578476,3,-0.593201,0.065674,0.131714,-0.791443,0.112487,-0.134748,0.187707,0.049806,0.123462,-9.578185,236.524016,0.718717,-9.613986,1.000000,1.000000,
189258764,236.557100,25.578476,3,-0.590027,0.066650,0.132324,-0.793701,0.159373,0.044509,-0.034365,-0.080595,0.147550,-9.838002,236.536743,0.626519,-9.760911,1.000000,1.000000,
