Code compiled on Mar 21 2026 at 12:11:29
﻿Simulation Mode (T/F),F
Airbrakes Enabled (T/F),T
Log File Name,RF
Sim File Name (if applicable),Sim
Burnout Mass (kg),0.6
Air Density (kg/m^3),1.193
Rocket CD,0.5
Airbrake CD,0.7
Rocket Area (m^2),0.00243
Kalman Model Y STD,1
Kalman Model V STD,0.4
Kalman Model A STD,5
Kalman Measurement Y STD,5
Kalman Measurement A STD,2
Target Apogee (m),224.6
Launch Acceleration Threshold (m/s^2),40
Coast Lockout (s),1.5
KP (1/s),0.24
Altimeter Lockout (s),90
Control Max Velocity (dep/s),5

Calibration point: 285.586030
Time (us),RAW Altitude AGL (m),Corrected Altitude AGL (m),Temperature (deg C),Mode,IMU Quat W,IMU Quat X,IMU Quat Y,IMU Quat Z,IMU Raw Local Acceleration X,IMU Raw Local Acceleration Y,IMU Raw Local Acceleration Z,IMU Global Acceleration x,IMU Global Acceleration y,IMU Global Acceleration z,State Estimation y,State Estimation v,State Estimation a,Commanded servo deployment,Real servo deployment,
252301200,-0.430208,-0.430208,34.353459,1,0.325623,-0.009460,-0.006226,-0.945435,0.743786,0.408547,9.844094,-0.199087,-0.610293,0.057808,0.079940,-0.316026,0.006786,0.000000,0.000000,
252309786,-0.108735,-0.108735,34.357989,2,0.325623,-0.009460,-0.006226,-0.945435,4.048435,-1.904753,93.936983,-3.063638,0.686001,84.188659,0.047537,0.367617,55.219053,0.000000,0.000000,
252320996,-0.224489,-0.224489,34.353459,2,0.325623,-0.009460,-0.006226,-0.945435,6.179750,2.915943,103.136430,-1.646643,-4.259138,93.459561,0.007875,1.347744,80.299810,0.000000,0.000000,
252329789,0.484618,0.484618,34.348930,2,0.326050,-0.009521,-0.006104,-0.945251,2.922628,0.451916,102.900254,-0.575797,-0.343684,93.138257,0.112946,2.228367,88.720150,0.000000,0.000000,
252339752,-0.108735,-0.108735,34.357989,2,0.326416,-0.009521,-0.005859,-0.945129,4.957113,8.188567,107.581599,2.675917,-7.626424,97.900038,0.098931,3.176076,94.740952,0.000000,0.000000,
252348798,0.278380,0.278380,34.348930,2,0.322571,-0.009827,-0.006714,-0.946472,11.286854,3.419358,104.443798,-5.359475,-7.613208,94.892177,0.165091,4.055464,94.840137,0.000000,0.000000,
252359280,-0.043092,-0.043092,34.344401,2,0.317383,-0.009827,-0.007263,-0.948242,5.508860,4.901797,102.968792,-0.007035,-5.176449,93.300333,0.173734,5.009907,93.830226,0.000000,0.000000,
252368562,-0.108735,-0.108735,34.357989,2,0.314270,-0.009216,-0.008118,-0.949280,4.099287,2.140685,114.257452,-0.594060,-1.744586,104.533338,0.172341,5.949445,100.850063,0.000000,0.000000,
252378149,0.162627,0.162627,34.344401,2,0.312073,-0.008667,-0.007629,-0.950012,3.443497,3.691553,109.600724,0.698622,-2.844216,99.875787,0.232112,6.905822,100.211065,0.000000,0.000000,
252389267,0.780791,0.780791,34.344401,2,0.308960,-0.008545,-0.007202,-0.950989,3.242366,2.442533,110.755597,0.119209,-1.782516,101.013254,0.417950,8.093517,100.737198,0.000000,0.000000,
252398512,0.072692,0.072692,34.348930,2,0.305603,-0.008606,-0.007080,-0.952087,5.114205,7.366644,109.789060,1.451547,-6.909806,100.125929,0.432302,8.976687,100.336284,0.000000,0.000000,
252408378,0.690337,0.690337,34.348930,2,0.302795,-0.008606,-0.007080,-0.953003,5.668179,8.259200,110.016199,1.470685,-7.959452,100.372195,0.574112,9.998163,100.359838,0.000000,0.000000,
252419115,0.986510,0.986510,34.344401,2,0.298767,-0.008789,-0.007507,-0.954285,5.814694,2.263926,111.623439,-2.115210,-3.001188,101.935424,0.764751,11.142142,101.393217,0.000000,0.000000,
252428621,0.278380,0.278380,34.348930,2,0.294128,-0.009094,-0.007751,-0.955688,1.849779,3.214424,111.448116,1.704590,-1.455247,101.684644,0.784019,12.048777,101.584353,0.000000,0.000000,
252439382,1.167937,1.167937,34.335342,2,0.291077,-0.009033,-0.007202,-0.956604,7.975552,2.976147,108.879038,-3.537509,-4.842094,99.244033,0.991381,13.164531,100.049412,0.000000,0.000000,
252448828,1.373656,1.373656,34.335342,2,0.287720,-0.009460,-0.006897,-0.957642,6.777874,2.295189,110.517545,-2.827516,-3.596275,100.852287,1.192033,14.165035,100.575994,0.000000,0.000000,
252458525,1.102294,1.102294,34.348930,2,0.283875,-0.009644,-0.006775,-0.958801,4.209708,4.765625,110.027513,0.670134,-4.264506,100.324314,1.317260,15.126830,100.410925,0.000000,0.000000,
252469584,1.373656,1.373656,34.335342,2,0.280823,-0.009216,-0.006775,-0.959656,4.816435,2.931597,110.344962,-0.939809,-3.063981,100.640060,1.501299,16.246610,100.561207,0.000000,0.000000,
252478914,2.016722,2.016722,34.344401,2,0.277710,-0.008728,-0.006836,-0.960571,1.813860,2.210299,110.284887,1.075700,-0.855330,100.511024,1.754044,17.248835,100.528296,0.000000,0.000000,
252488634,1.695708,1.695708,34.339871,2,0.273621,-0.008362,-0.006958,-0.961792,3.807507,2.784545,110.673623,-0.413324,-2.391353,100.945533,1.915541,18.222840,100.801948,0.000000,0.000000,
252499358,2.016722,2.016722,34.344401,2,0.267212,-0.008606,-0.007324,-0.963562,3.895650,5.963158,109.587177,1.122269,-5.068803,99.893333,2.135665,19.306816,100.206016,0.000000,0.000000,
252508815,2.610717,2.610717,34.335342,2,0.257812,-0.008911,-0.007690,-0.966125,10.497160,2.096649,109.333199,-6.612713,-4.922830,99.744248,2.411880,20.309031,99.903159,0.000000,0.000000,
252518574,1.991912,1.991912,34.335342,2,0.247070,-0.008911,-0.008728,-0.968933,7.028232,3.183795,109.614116,-3.224596,-3.825152,99.968533,2.536032,21.233022,99.946034,0.000000,0.000000,
252529615,2.610717,2.610717,34.335342,2,0.238525,-0.009033,-0.008484,-0.971069,0.894159,3.339881,109.346396,2.234032,-1.109686,99.569892,2.790542,22.341677,99.699335,0.000000,0.000000,
252539052,2.932280,2.932280,34.339871,2,0.230713,-0.009094,-0.007751,-0.972961,6.850713,2.510062,109.513826,-3.451642,-3.215733,99.853072,3.032454,23.301739,99.800167,0.000000,0.000000,
252549866,3.022246,3.022246,34.335342,2,0.224792,-0.008484,-0.007324,-0.974365,1.716109,4.571067,108.836982,1.898603,-2.896168,99.089117,3.288285,24.372275,99.333812,0.000000,0.000000,
252559325,3.962706,3.962706,34.339871,2,0.221191,-0.007202,-0.007385,-0.975159,4.901825,2.029189,108.434889,-2.381355,-2.050206,98.717635,3.649884,25.390027,98.929684,0.000000,0.000000,
252569025,4.258971,4.258971,34.335342,2,0.216919,-0.007202,-0.007324,-0.976135,2.059051,4.004520,108.757020,1.010730,-2.616499,99.012503,4.015152,26.425461,98.984005,0.000000,0.000000,
252579826,4.877379,4.877379,34.335342,2,0.212097,-0.007385,-0.007751,-0.977173,3.726814,3.000310,108.336481,-0.939574,-2.302232,98.611654,4.468197,27.596169,98.739795,0.000000,0.000000,
252589148,4.902709,4.902709,34.344401,2,0.207275,-0.008362,-0.008301,-0.978210,2.539608,3.969940,108.168238,0.685113,-2.532596,98.436627,4.811293,28.567606,98.540958,0.000000,0.000000,
252598848,4.786895,4.786895,34.339871,2,0.202576,-0.009827,-0.009338,-0.979187,2.603168,3.342864,107.086146,0.588103,-1.718127,97.351091,5.088352,29.508936,97.760561,0.000000,0.000000,
252609899,4.992705,4.992705,34.339871,2,0.197876,-0.011780,-0.010681,-0.980103,3.712366,2.945863,106.758848,-0.266955,-1.432496,97.049631,5.402398,30.570146,97.294284,0.000000,0.000000,
252619376,5.817473,5.817473,34.339871,2,0.193176,-0.014465,-0.012268,-0.980957,2.091733,3.381014,106.484558,1.861564,-0.763968,96.742820,5.774368,31.538211,96.932598,0.000000,0.000000,
252629154,5.817473,5.817473,34.339871,2,0.188416,-0.017395,-0.014221,-0.981812,3.257684,3.141777,105.250841,1.163859,-0.493953,95.540825,6.095345,32.477653,96.019778,0.000000,0.000000,
252639885,6.551848,6.551848,34.344401,2,0.183655,-0.020874,-0.016541,-0.982605,2.650587,2.787471,106.114106,2.246678,0.706519,96.353903,6.535117,33.567084,96.238922,0.000000,0.000000,
252649334,6.230162,6.230162,34.339871,2,0.178833,-0.024658,-0.019165,-0.983398,1.914119,3.604282,104.471317,3.830980,0.812969,94.678654,6.799200,34.423583,95.215590,0.000000,0.000000,
252659059,7.376769,7.376769,34.344401,2,0.173950,-0.028809,-0.022095,-0.984070,2.373763,2.650916,103.455161,3.756999,2.230160,93.618486,7.246684,35.404318,94.168101,0.000000,0.000000,
252670126,7.944152,7.944152,34.326283,2,0.169006,-0.033203,-0.025330,-0.984741,1.778753,3.307671,102.200271,5.239704,2.531500,92.299746,7.774997,36.511100,92.942708,0.000000,0.000000,
252679519,8.265898,8.265898,34.330812,2,0.164062,-0.037720,-0.028809,-0.985291,1.771525,2.678716,101.918527,5.813328,3.943099,91.922862,8.214117,37.434736,92.273825,0.000000,0.000000,
252690419,8.704009,8.704009,34.339871,2,0.158997,-0.042542,-0.032471,-0.985840,1.465917,2.666343,101.303104,6.905892,4.868464,91.189984,8.719507,38.488737,91.562970,0.000000,0.000000,
252699684,8.910918,8.910918,34.339871,2,0.153931,-0.047363,-0.036255,-0.986267,1.002656,2.908260,100.985199,8.247626,5.621665,90.738330,9.115898,39.352731,91.022115,0.000000,0.000000,
252709302,9.736052,9.736052,34.339871,2,0.148804,-0.052246,-0.040222,-0.986694,0.934164,2.033834,100.319285,8.854166,7.306922,89.880382,9.614834,40.292489,90.273291,0.000000,0.000000,
252720012,10.470153,10.470153,34.344401,2,0.143616,-0.057129,-0.044250,-0.987000,0.472124,2.644001,99.216628,10.242760,7.633432,88.625268,10.211864,41.345336,89.192408,0.000000,0.000000,
252729460,10.238372,10.238372,34.335342,2,0.138428,-0.061829,-0.048279,-0.987244,0.279329,1.867703,98.945052,11.006457,9.255490,88.112122,10.611352,42.180730,88.483882,0.000000,0.000000,
252739126,11.475981,11.475981,34.335342,2,0.133240,-0.066406,-0.052246,-0.987488,0.080577,2.254167,98.054686,12.027114,9.662481,87.059944,11.185217,43.126522,87.549969,0.000000,0.000000,
252750128,11.978392,11.978392,34.330812,2,0.127991,-0.070679,-0.056152,-0.987671,-0.177696,1.718843,97.042804,12.763348,10.909621,85.795126,11.813628,44.166340,86.399025,0.000000,0.000000,
252759751,12.945037,12.945037,34.344401,2,0.122681,-0.074646,-0.059875,-0.987793,-0.198876,1.437683,96.391618,13.351307,11.830386,84.938136,12.454852,45.121567,85.440879,0.000000,0.000000,
252769437,12.920195,12.920195,34.335342,2,0.117310,-0.078186,-0.063416,-0.987976,-0.553747,1.686603,95.512651,14.276568,12.208944,83.865492,12.983055,45.990100,84.407633,0.000000,0.000000,
252780180,13.563964,13.563964,34.344401,2,0.111755,-0.081299,-0.066711,-0.988159,-0.692257,0.996311,95.115996,14.761677,13.448066,83.207480,13.590874,46.954259,83.620492,0.000000,0.000000,
252789639,14.363036,14.363036,34.335342,2,0.105652,-0.083801,-0.069824,-0.988403,-0.802298,0.951025,93.039690,15.016795,13.716388,80.994814,14.183407,47.813681,81.898395,0.000000,0.000000,
252800694,15.098540,15.098540,34.339871,2,0.098938,-0.085815,-0.072693,-0.988708,-0.872539,0.546768,93.523919,15.478365,14.658527,81.269795,14.888688,48.822566,81.486119,0.000000,0.000000,
252809907,15.692229,15.692229,34.330812,2,0.091614,-0.087158,-0.075256,-0.989136,-0.726622,0.348780,91.740511,15.320285,14.903223,79.419906,15.492583,49.651848,80.130958,0.000000,0.000000,
252819748,16.427275,16.427275,34.335342,2,0.083435,-0.087769,-0.077576,-0.989624,-0.784892,0.782667,91.232678,15.570592,14.699969,78.892256,16.160282,50.540852,79.318536,0.000000,0.000000,
252830636,16.246611,16.246611,34.344401,2,0.074219,-0.087708,-0.079590,-0.990173,-0.724417,0.287970,91.223845,15.511186,15.372322,78.769592,16.731416,51.409064,78.958501,0.000000,0.000000,
252840117,16.633849,16.633849,34.335342,2,0.063904,-0.086792,-0.081238,-0.990845,-0.789997,0.662083,89.346650,15.298877,14.806698,76.982047,17.203883,52.126347,77.662206,0.000000,0.000000,
252849700,17.459044,17.459044,34.335342,2,0.052612,-0.085205,-0.082458,-0.991577,-0.576669,-0.070166,88.901742,14.806518,15.450376,76.484125,17.754722,52.889912,76.889541,0.000000,0.000000,
252860743,18.374938,18.374938,34.330812,2,0.040344,-0.082886,-0.083313,-0.992249,-0.245235,0.116991,87.133237,13.991153,14.884815,74.904418,18.459628,53.792040,75.587563,0.000000,0.000000,
252870105,18.581511,18.581511,34.330812,2,0.026978,-0.079895,-0.083740,-0.992920,0.166469,0.442097,87.154622,13.300552,14.419411,75.116986,18.989369,54.509924,75.278926,0.000000,0.000000,
252881016,18.903563,18.903563,34.335342,2,0.012573,-0.076294,-0.083801,-0.993469,0.400055,0.712674,85.116970,12.348921,13.625302,73.309143,19.572307,55.300294,73.987007,0.000000,0.000000,
252890175,18.839385,18.839385,34.348930,2,-0.002991,-0.072144,-0.083252,-0.993896,0.611866,0.474940,84.682926,11.583450,13.514455,72.996987,19.944296,55.879142,73.337680,0.000000,0.000000,
252900022,19.226683,19.226683,34.339871,2,-0.019409,-0.067627,-0.082153,-0.994141,0.934637,0.622430,83.805283,10.586511,12.895611,72.333538,20.363456,56.505744,72.679092,0.000000,0.000000,
252910759,20.258208,20.258208,34.339871,2,-0.036621,-0.062805,-0.080627,-0.994080,1.135855,1.068814,82.563317,9.599371,11.891078,71.346959,20.954475,57.259709,71.805387,0.000000,0.000000,
252920254,20.761046,20.761046,34.335342,2,-0.054688,-0.057861,-0.078613,-0.993713,1.418007,0.984085,81.907112,8.622591,11.477335,70.861138,21.465023,57.908883,71.186083,0.000000,0.000000,
252929971,21.380980,21.380980,34.335342,2,-0.073486,-0.052856,-0.076111,-0.992981,1.710632,1.788854,80.795149,7.445892,10.093780,70.056053,22.015227,58.579558,70.444931,0.000000,0.000000,
252941048,21.496459,21.496459,34.339871,2,-0.092957,-0.047791,-0.073242,-0.991821,1.761927,1.744114,80.567967,6.696424,9.631777,69.948153,22.571077,59.293024,70.119108,0.000000,0.000000,
252950326,22.735930,22.735930,34.339871,2,-0.113159,-0.042847,-0.069946,-0.990173,1.845040,2.247433,78.748313,5.640403,8.399924,68.348045,23.154982,59.946321,68.957523,0.000000,0.000000,
252960211,23.445586,23.445586,34.335342,2,-0.133911,-0.038086,-0.066467,-0.988037,1.838813,2.835255,78.057355,4.755402,7.236912,67.844398,23.805302,60.651648,68.227461,0.000000,0.000000,
252970928,23.561614,23.561614,34.339871,2,-0.155151,-0.033691,-0.062744,-0.985352,1.761235,2.714477,77.496966,4.152633,6.754803,67.359120,24.413433,61.344841,67.657942,0.000000,0.000000,
252980388,24.594603,24.594603,34.339871,2,-0.176819,-0.029663,-0.059082,-0.981995,1.608509,3.558217,76.281290,3.303396,5.306419,66.319432,25.030642,61.993610,66.780056,0.000000,0.000000,
252991307,25.806975,25.806975,34.330812,2,-0.198792,-0.026001,-0.055481,-0.978149,1.577180,3.379549,75.344582,2.735078,4.920872,65.423140,25.857028,62.800832,65.890100,0.000000,0.000000,
253000744,26.246367,26.246367,34.339871,2,-0.221008,-0.022888,-0.052063,-0.973633,1.492911,3.776927,74.071858,2.041391,4.016233,64.242946,26.525508,63.453557,64.809785,0.000000,0.000000,
253010322,27.163024,27.163024,34.335342,2,-0.243225,-0.020081,-0.048950,-0.968506,1.200413,4.017948,73.293985,1.644184,3.277382,63.517758,27.255641,64.137850,63.962387,0.000000,0.000000,
253021382,27.783324,27.783324,34.335342,2,-0.265503,-0.017761,-0.046326,-0.962830,1.317781,4.077496,72.427136,1.042855,2.965324,62.687869,28.067753,64.894170,63.126472,0.000000,0.000000,
253030850,29.525267,29.525267,34.330812,2,-0.287781,-0.015808,-0.044189,-0.956543,0.779783,4.154482,71.339823,1.029933,2.359507,61.615911,28.958283,65.652730,62.135749,0.000000,0.000000,
253040583,29.642394,29.642394,34.335342,2,-0.310181,-0.014221,-0.042664,-0.949646,0.843681,3.751975,70.579868,0.882902,2.580517,60.832375,29.728361,66.326183,61.280909,0.000000,0.000000,
253051401,30.468627,30.468627,34.335342,2,-0.332458,-0.012939,-0.041870,-0.942078,0.585608,3.914841,68.503048,0.671794,2.138767,58.783435,30.588042,67.050599,59.642897,0.000000,0.000000,
253060783,31.088622,31.088622,34.335342,2,-0.354736,-0.011902,-0.041687,-0.933960,0.424443,3.882260,69.240131,0.698814,2.191450,59.515503,31.313606,67.669051,59.559345,0.000000,0.000000,
253070488,32.031127,32.031127,34.339871,2,-0.377075,-0.010986,-0.042236,-0.925171,0.184257,3.072773,67.003705,1.220734,2.614976,57.215254,32.107409,68.309263,58.021932,0.000000,0.000000,
253081545,32.535063,32.535063,34.335342,2,-0.399353,-0.010132,-0.043335,-0.915710,0.422281,2.899454,65.907914,1.098497,3.032838,56.095555,32.946247,68.980759,56.758483,0.000000,0.000000,
253091037,33.865538,33.865538,34.330812,2,-0.421692,-0.009277,-0.045105,-0.905579,0.497442,2.465344,64.612428,1.341890,3.563560,54.747793,33.775814,69.610107,55.439738,0.000000,0.000000,
253101831,33.477690,33.477690,34.339871,2,-0.444031,-0.008301,-0.047424,-0.894714,0.527275,2.225685,63.161085,1.513216,3.967297,53.254332,34.474273,70.150272,54.006397,0.000000,0.000000,
253111060,34.808806,34.808806,34.335342,2,-0.466431,-0.007080,-0.050110,-0.883118,0.561057,1.591364,62.642762,2.086267,4.696389,52.654225,35.186613,70.675874,53.119551,0.000000,0.000000,
253120766,35.609526,35.609526,34.326283,2,-0.488831,-0.005737,-0.053101,-0.870728,0.693593,1.562357,61.348286,2.105774,5.111068,51.316723,35.954194,71.223956,51.937134,0.000000,0.000000,
253131437,36.346007,36.346007,34.330812,2,-0.511353,-0.004089,-0.056274,-0.857544,1.002392,0.742396,60.528099,2.775428,6.110835,50.365379,36.790477,71.807970,50.906270,0.000000,0.000000,
253140885,36.462706,36.462706,34.335342,2,-0.533875,-0.002258,-0.059387,-0.843445,1.260391,1.003292,58.054970,2.454351,6.381188,47.874256,37.409471,72.220371,48.917665,0.000000,0.000000,
253150597,37.198729,37.198729,34.339871,2,-0.556396,-0.000061,-0.062378,-0.828552,1.297170,0.502489,58.213681,3.089203,7.011368,47.917536,38.073609,72.660957,48.261711,0.000000,0.000000,
253161597,38.207152,38.207152,34.330812,2,-0.579041,0.002380,-0.065125,-0.812683,1.684923,0.328252,55.755247,3.127058,7.528272,45.379304,38.900541,73.177035,46.371231,0.000000,0.000000,
253171092,38.943816,38.943816,34.335342,2,-0.601746,0.005127,-0.067505,-0.795837,1.831327,0.529733,54.605099,2.977035,7.809004,44.195455,39.605361,73.601050,44.944207,0.000000,0.000000,
253181981,40.068083,40.068083,34.330812,2,-0.624451,0.008057,-0.069397,-0.777954,1.998001,0.087415,53.401793,3.434712,8.221342,42.885408,40.496036,74.123335,43.593907,0.000000,0.000000,
253191420,41.102721,41.102721,34.330812,2,-0.647156,0.011169,-0.070801,-0.758972,1.952679,0.488014,51.833139,3.073498,8.156235,41.333814,41.311208,74.585326,42.111585,0.000000,0.000000,
253200991,41.011931,41.011931,34.335342,2,-0.669800,0.014404,-0.071533,-0.738953,1.844200,0.383467,50.657528,3.200350,8.110466,40.132426,41.970730,74.933917,40.813515,0.000000,0.000000,
253211800,41.515776,41.515776,34.330812,2,-0.692200,0.017700,-0.071716,-0.717896,2.026148,0.589556,48.824813,2.927523,8.211966,38.289571,42.697542,75.295523,39.158137,0.000000,0.000000,
253221142,42.253722,42.253722,34.335342,2,-0.714294,0.020935,-0.071167,-0.695862,2.012509,0.811141,45.865687,2.553722,7.932544,35.356620,43.319119,75.571658,36.664839,0.000000,0.000000,
253231041,42.873381,42.873381,34.335342,2,-0.735962,0.024048,-0.070068,-0.672974,1.667434,0.727456,43.800246,2.509539,7.388102,33.340331,43.985183,75.849673,34.484396,0.000000,0.000000,
253242033,44.088927,44.088927,34.326283,2,-0.757080,0.027039,-0.068420,-0.649170,1.740697,1.125354,41.680579,1.992280,7.290179,31.236177,44.840124,76.206478,32.353991,0.000000,0.000000,
253251527,44.852996,44.852996,34.339871,2,-0.777649,0.029846,-0.066284,-0.624451,1.103568,0.874362,34.209496,1.624548,5.673728,23.922322,45.566719,76.431992,26.823922,0.000000,0.000000,
253261111,45.860594,45.860594,34.330812,2,-0.797546,0.032349,-0.063721,-0.598999,0.360977,1.409872,25.176202,0.325434,3.954634,15.104057,46.354506,76.610272,19.137229,0.000000,0.000000,
253272188,46.804442,46.804442,34.335342,2,-0.816650,0.034485,-0.060913,-0.572937,-0.180029,1.114342,21.087283,0.153628,2.869936,11.115036,47.287824,76.789838,13.875724,0.000000,0.000000,
253281605,47.425902,47.425902,34.335342,2,-0.834900,0.036316,-0.057861,-0.546082,-0.563232,0.954672,16.461675,-0.167346,1.906801,6.586549,48.036791,76.865408,9.094982,0.000000,0.000000,
253292442,48.253569,48.253569,34.335342,2,-0.852417,0.037903,-0.054749,-0.518616,-0.429960,1.109695,13.198893,-0.462639,1.730925,3.333303,48.910385,76.929060,5.316077,0.000000,0.000000,
253301546,49.198149,49.198149,34.339871,2,-0.869019,0.039429,-0.051819,-0.490479,-1.018290,0.569695,10.569850,-0.465805,0.688001,0.798436,49.664522,76.968531,2.353098,0.000000,0.000000,
253311380,49.289031,49.289031,34.335342,2,-0.884827,0.040771,-0.049133,-0.461548,-1.141642,0.773518,8.131857,-0.882019,0.466819,-1.612652,50.350845,76.909135,-0.247915,0.000000,0.000000,
253322124,49.910155,49.910155,34.335342,2,-0.899719,0.042175,-0.046875,-0.431885,-1.027377,0.402188,6.551672,-0.636533,0.211949,-3.187842,51.094258,76.824527,-2.176124,0.000000,0.000000,
253331601,51.061614,51.061614,34.339871,2,-0.913757,0.043457,-0.044983,-0.401489,-1.247995,0.289037,4.965628,-0.820692,-0.150356,-4.735227,51.815875,76.774992,-3.854560,0.000000,0.000000,
253341320,51.979949,51.979949,34.335342,2,-0.926758,0.044861,-0.043518,-0.370422,-1.195134,0.273071,3.351522,-0.890375,-0.242387,-6.347875,52.592383,76.732427,-5.489847,0.000000,0.000000,
253352417,51.890074,51.890074,34.339871,2,-0.938782,0.046326,-0.042419,-0.338684,-1.238649,-0.128668,2.607700,-0.747340,-0.585057,-7.064269,53.311744,76.573090,-6.522464,0.000000,0.000000,
253361655,52.601226,52.601226,34.335342,2,-0.949829,0.047852,-0.041748,-0.306274,-0.903582,0.305800,0.398760,-0.893554,-0.231275,-9.324839,53.885396,76.401218,-8.360458,0.000000,0.000000,
253371540,54.141082,54.141082,34.330812,2,-0.959778,0.049561,-0.041321,-0.273315,-0.789630,-0.281785,0.221227,-0.510390,-0.625745,-9.477381,54.688015,76.337463,-9.093012,0.000000,0.000000,
253382298,54.050658,54.050658,34.335342,2,-0.968628,0.051392,-0.041077,-0.239624,-0.356999,0.164606,-1.429036,-0.470464,-0.193349,-11.197058,55.389060,76.143411,-10.472993,0.000000,0.000000,
253391789,55.203093,55.203093,34.339871,2,-0.976379,0.053406,-0.040955,-0.205261,-0.479592,0.142148,-1.572524,-0.591284,-0.261092,-11.319116,56.076329,76.013726,-11.027939,0.000000,0.000000,
253402599,55.500853,55.500853,34.335342,2,-0.982971,0.055542,-0.040833,-0.170349,-0.154081,0.057133,-2.683169,-0.329559,-0.332348,-12.450371,56.789368,75.812391,-11.960870,0.000000,0.000000,
253412065,56.329161,56.329161,34.335342,2,-0.988342,0.057739,-0.040649,-0.135010,-0.247595,0.493749,-3.073220,-0.570690,0.022398,-12.867392,57.420109,75.635719,-12.555432,0.000000,0.000000,
253421694,57.157531,57.157531,34.335342,2,-0.992432,0.059998,-0.040222,-0.099304,-0.166690,0.187776,-3.037536,-0.404657,-0.243983,-12.812749,58.098606,75.481597,-12.724199,0.000000,0.000000,
253432736,57.572264,57.572264,34.335342,2,-0.995239,0.062256,-0.039673,-0.063538,0.634680,0.391383,-3.976714,0.293039,-0.055199,-13.831167,58.832532,75.268248,-13.450227,0.000000,0.000000,
253442032,58.012480,58.012480,34.344401,2,-0.996765,0.064209,-0.039246,-0.027954,-0.293105,0.189827,-3.864510,-0.593548,-0.333158,-13.621095,59.377904,75.044382,-13.562298,0.000000,0.000000,
253451855,58.517180,58.517180,34.339871,2,-0.997009,0.066162,-0.038513,0.007446,0.696445,0.463177,-4.746097,0.326262,-0.187267,-14.608083,59.953071,74.800559,-14.248199,0.000000,0.000000,
253462862,59.553160,59.553160,34.339871,2,-0.996094,0.067871,-0.037598,0.042664,0.279315,0.580527,-4.876841,-0.077227,-0.101376,-14.714405,60.700532,74.592320,-14.553971,0.000000,0.000000,
253472290,60.382323,60.382323,34.339871,2,-0.993896,0.069458,-0.036499,0.077576,0.516674,0.078953,-5.167154,0.083622,-0.696817,-14.945894,61.343450,74.413570,-14.811022,0.000000,0.000000,
253482983,61.300963,61.300963,34.335342,2,-0.990540,0.070740,-0.035156,0.112305,0.279061,0.763117,-6.012644,-0.083982,-0.121878,-15.867379,62.130238,74.239258,-15.503854,0.000000,0.000000,
253492292,61.508940,61.508940,34.335342,2,-0.986023,0.071777,-0.033630,0.146667,0.292641,0.315985,-5.665230,-0.130542,-0.535941,-15.457502,62.704206,74.021929,-15.473456,0.000000,0.000000,
253501853,62.247252,62.247252,34.339871,2,-0.980347,0.072632,-0.031738,0.180603,0.315758,0.391894,-6.703467,-0.167152,-0.635632,-16.492676,63.325549,73.811023,-16.141933,0.000000,0.000000,
253512938,63.491088,63.491088,34.339871,2,-0.973633,0.073242,-0.029785,0.214111,0.116814,0.082940,-5.953965,-0.394188,-0.750318,-15.697587,64.173816,73.655896,-15.850500,0.000000,0.000000,
253522386,63.581572,63.581572,34.335342,2,-0.965759,0.073608,-0.027588,0.247192,0.323624,0.149199,-6.500411,-0.237042,-0.865533,-16.248701,64.757966,73.432379,-16.111670,0.000000,0.000000,
253532098,64.410002,64.410002,34.335342,2,-0.956909,0.073730,-0.025269,0.279724,0.021101,0.346911,-7.002063,-0.434059,-0.607387,-16.769789,65.405142,73.228972,-16.543311,0.000000,0.000000,
253542848,64.734526,64.734526,34.339871,2,-0.947021,0.073730,-0.022888,0.311768,0.213998,-0.231597,-6.304457,-0.527013,-1.111258,-15.988645,66.065794,72.979254,-16.179526,0.000000,0.000000,
253552339,65.330046,65.330046,34.330812,2,-0.936096,0.073608,-0.020386,0.343323,0.245970,0.385123,-7.023194,-0.193200,-0.745403,-16.799771,66.619777,72.733180,-16.586329,0.000000,0.000000,
253561966,65.654601,65.654601,34.335342,2,-0.924194,0.073364,-0.017822,0.374451,0.090904,-0.198490,-6.169213,-0.609580,-0.962013,-15.868945,67.138511,72.468353,-16.115823,0.000000,0.000000,
253573015,66.573729,66.573729,34.330812,2,-0.911316,0.072937,-0.015198,0.404968,0.321499,0.283805,-7.121939,-0.190591,-0.917077,-16.872097,67.832329,72.217142,-16.611842,0.000000,0.000000,
253582491,67.312926,67.312926,34.335342,2,-0.897461,0.072510,-0.012512,0.434937,0.123839,-0.222520,-6.356926,-0.637253,-0.999377,-16.057108,68.418614,72.004031,-16.248012,0.000000,0.000000,
253593436,68.557372,68.557372,34.335342,2,-0.882690,0.072021,-0.009827,0.464355,0.054520,-0.050613,-6.642958,-0.571572,-0.865011,-16.365679,69.231724,71.841093,-16.325185,0.000000,0.000000,
253602711,69.476744,69.476744,34.330812,2,-0.867004,0.071472,-0.007080,0.493103,-0.022100,-0.257198,-6.610516,-0.780505,-0.885696,-16.310610,69.943281,71.718802,-16.315625,0.000000,0.000000,
253612379,69.593840,69.593840,34.335342,2,-0.850403,0.070923,-0.004333,0.521301,-0.069731,-0.414639,-6.585900,-0.939243,-0.892805,-16.270152,70.570445,71.520861,-16.285802,0.000000,0.000000,
253623178,70.099089,70.099089,34.330812,2,-0.832947,0.070312,-0.001587,0.548828,0.007248,0.003853,-6.871352,-0.546274,-0.800012,-16.599640,71.253500,71.287263,-16.491640,0.000000,0.000000,
253632499,70.333770,70.333770,34.339871,2,-0.814697,0.069763,0.001282,0.575684,-0.238134,-0.630242,-6.081072,-1.144715,-0.690884,-15.775572,71.744981,71.032567,-16.021998,0.000000,0.000000,
253642285,71.046172,71.046172,34.335342,2,-0.795593,0.069153,0.004028,0.601868,0.063741,-0.077189,-6.950484,-0.589141,-0.888936,-16.673103,72.308420,70.788631,-16.449040,0.000000,0.000000,
253653363,71.279845,71.279845,34.344401,2,-0.775635,0.068604,0.006775,0.627380,-0.239235,-0.492212,-6.097886,-0.989738,-0.574982,-15.817347,72.898943,70.494593,-16.034736,0.000000,0.000000,
253662837,72.082885,72.082885,34.335342,2,-0.754822,0.067993,0.009460,0.652283,0.002499,-0.432459,-6.484686,-0.912430,-0.818641,-16.185189,73.413122,70.245174,-16.133417,0.000000,0.000000,
253673665,72.407653,72.407653,34.339871,2,-0.733276,0.067444,0.012024,0.676514,0.187581,-0.126871,-6.491376,-0.587475,-0.950286,-16.200752,73.984315,69.952940,-16.177584,0.000000,0.000000,
253683118,73.003081,73.003081,34.330812,2,-0.710999,0.066956,0.014526,0.699890,-0.093992,-0.454410,-6.151509,-0.908273,-0.623728,-15.872090,74.460949,69.687324,-15.977224,0.000000,0.000000,
253692658,73.976989,73.976989,34.344401,2,-0.688049,0.066467,0.016907,0.722412,0.092420,0.186198,-6.656246,-0.310464,-0.881817,-16.395699,75.034352,69.474574,-16.251691,0.000000,0.000000,
253703641,74.247679,74.247679,34.330812,2,-0.664429,0.065918,0.019226,0.744141,-0.329784,-0.245551,-6.135213,-0.661355,-0.360334,-15.905334,75.649045,69.209064,-16.024529,0.000000,0.000000,
253713026,75.492980,75.492980,34.330812,2,-0.640198,0.065430,0.021484,0.765137,0.029270,0.005313,-6.801179,-0.502638,-0.822461,-16.535584,76.268573,69.035352,-16.359715,0.000000,0.000000,
253722730,75.817839,75.817839,34.335342,2,-0.615356,0.064941,0.023743,0.785217,-0.395931,-0.002239,-6.320444,-0.378557,-0.363026,-16.114437,76.853329,68.826786,-16.198847,0.000000,0.000000,
253733637,76.557189,76.557189,34.339871,2,-0.589966,0.064392,0.026001,0.804443,-0.618288,-0.306403,-6.255539,-0.571712,-0.064203,-16.071290,77.547588,68.617341,-16.115187,0.000000,0.000000,
253743124,76.349974,76.349974,34.339871,2,-0.564026,0.063843,0.028198,0.822815,-0.099508,0.232967,-6.810510,-0.248205,-0.800384,-16.568963,77.973367,68.319637,-16.412810,0.000000,0.000000,
253753845,77.802733,77.802733,34.339871,2,-0.537659,0.063232,0.030334,0.840210,-0.440289,-0.339528,-5.932959,-0.569942,-0.166011,-15.736040,78.672969,68.130960,-15.968938,0.000000,0.000000,
253763329,78.190703,78.190703,34.330812,2,-0.510803,0.062622,0.032410,0.856812,-0.424817,-0.087384,-6.600843,-0.371830,-0.380887,-16.390717,79.227985,67.918802,-16.245572,0.000000,0.000000,
253772881,78.425566,78.425566,34.339871,2,-0.483521,0.061890,0.034424,0.872498,-0.343617,-0.152567,-5.955230,-0.394264,-0.349535,-15.741755,79.725773,67.675489,-15.915138,0.000000,0.000000,
253783994,79.166136,79.166136,34.344401,2,-0.455811,0.061035,0.036377,0.887268,-0.515009,-0.283667,-6.102800,-0.389625,-0.163389,-15.914567,80.372015,67.434340,-15.914766,0.000000,0.000000,
253793187,80.501616,80.501616,34.339871,2,-0.427612,0.059998,0.038208,0.901123,-0.358222,0.075893,-6.357064,-0.194721,-0.538585,-16.140986,81.015531,67.301060,-16.063136,0.000000,0.000000,
253803007,81.006865,81.006865,34.335342,2,-0.399109,0.058838,0.039917,0.914124,-0.392583,-0.314437,-5.682971,-0.397118,-0.191732,-15.486490,81.674082,67.147953,-15.684932,0.000000,0.000000,
253813677,81.331938,81.331938,34.339871,3,-0.370300,0.057495,0.041565,0.926208,-0.149666,0.238798,-6.554413,-0.222474,-0.863050,-16.298437,82.325507,66.934904,-16.087312,0.000000,0.000000,
253823283,82.252959,82.252959,34.335342,3,-0.341248,0.056091,0.043030,0.937317,-0.588038,-0.002368,-5.910793,-0.004739,-0.337010,-15.727552,82.954183,66.775464,-15.851357,0.045000,0.045000,
253833019,82.875548,82.875548,34.335342,3,-0.311951,0.054565,0.044434,0.947510,-0.292556,0.099836,-6.156039,-0.175274,-0.640200,-15.924780,83.588825,66.611337,-15.899513,0.095000,0.075000,
253844050,82.993285,82.993285,34.339871,3,-0.282471,0.052979,0.045776,0.956726,-0.198415,0.116707,-6.271356,-0.247667,-0.736952,-16.033243,84.211054,66.366095,-15.987225,0.150000,0.108000,
253853325,84.211486,84.211486,34.330812,3,-0.252930,0.051331,0.047119,0.964966,-0.177924,0.285650,-6.227274,-0.174371,-0.898408,-15.974241,84.825994,66.217990,-15.978709,0.200000,0.138000,
253864294,84.446990,84.446990,34.339871,3,-0.223206,0.049622,0.048401,0.972290,-0.316308,0.446874,-5.663534,0.050552,-0.931397,-15.417184,85.480412,66.004926,-15.610424,0.250000,0.168000,
253873589,84.952971,84.952971,34.335342,3,-0.193481,0.047852,0.049561,0.978699,-0.125615,0.026312,-5.874378,-0.317682,-0.657654,-15.633126,85.994405,65.797683,-15.625316,0.300000,0.198000,
253883345,85.783141,85.783141,34.335342,3,-0.163818,0.046082,0.050720,0.984131,-0.170734,0.921724,-6.520243,-0.022235,-1.563753,-16.201042,86.595968,65.615231,-16.002918,0.345000,0.225000,
253894048,86.496611,86.496611,34.330812,3,-0.134460,0.044312,0.051880,0.988586,-0.059440,0.437064,-5.615239,-0.241197,-1.055875,-15.329301,87.278785,65.439512,-15.561114,0.400000,0.258000,
253903508,87.237761,87.237761,34.335342,3,-0.105347,0.042480,0.053040,0.992126,0.179890,0.835778,-6.321720,-0.463646,-1.575982,-15.965305,87.889424,65.283575,-15.826211,0.450000,0.288000,
253913341,86.939635,86.939635,34.339871,3,-0.076355,0.040527,0.054199,0.994751,-0.235366,0.455271,-6.166043,-0.143537,-1.121814,-15.883242,88.352737,65.018021,-15.863619,0.500000,0.318000,
253924381,87.445220,87.445220,34.335342,3,-0.047485,0.038574,0.055481,0.996582,-0.493829,0.318982,-6.564521,0.047297,-1.029059,-16.309282,88.899492,64.733941,-16.155919,0.550000,0.348000,
253933744,88.276091,88.276091,34.335342,3,-0.018738,0.036560,0.056824,0.997559,-0.063001,0.700380,-7.126013,-0.417990,-1.518554,-16.785450,89.388009,64.503489,-16.568812,0.600000,0.378000,
253944551,88.691558,88.691558,34.335342,3,0.009888,0.034485,0.058228,0.997681,-0.024504,-0.357839,-6.692113,-0.441173,-0.423226,-16.473241,89.953630,64.245043,-16.506133,0.650000,0.408000,
253954023,89.612731,89.612731,34.330812,3,0.038452,0.032410,0.059692,0.996948,-0.316240,0.408888,-7.388975,-0.234888,-1.291459,-17.089918,90.497479,64.043053,-16.889021,0.700000,0.438000,
253963643,89.820769,89.820769,34.330812,3,0.066956,0.030212,0.061096,0.995422,-0.452536,0.657874,-7.328714,-0.147852,-1.571305,-17.001810,90.986049,63.801250,-16.962999,0.750000,0.468000,
253974453,90.769652,90.769652,34.335342,3,0.095398,0.027954,0.062561,0.993103,-0.057340,0.176030,-7.593322,-0.495853,-1.084320,-17.303409,91.634179,63.589506,-17.186264,0.800000,0.498000,
253983788,90.769652,90.769652,34.335342,3,0.123779,0.025513,0.064026,0.989929,-0.053235,-0.061936,-8.074186,-0.479857,-0.928087,-17.809756,92.065025,63.322270,-17.595197,0.850000,0.528000,
253993507,91.899077,91.899077,34.330812,3,0.152100,0.023010,0.065491,0.985901,-0.209696,0.688608,-7.686381,-0.517079,-1.654777,-17.327492,92.648578,63.134800,-17.419618,0.900000,0.558000,
254004559,91.899077,91.899077,34.330812,3,0.180481,0.020447,0.066895,0.981079,0.214785,0.154233,-8.535918,-0.812915,-1.130010,-18.232110,93.204803,62.847986,-17.952509,0.950000,0.588000,
254014031,92.522765,92.522765,34.330812,3,0.208679,0.017883,0.068359,0.975403,-0.048341,0.000665,-7.923963,-0.460693,-1.016912,-17.642902,93.671528,62.601381,-17.749451,1.000000,0.618000,
254023791,92.938384,92.938384,34.330812,3,0.236694,0.015320,0.069763,0.968933,0.023474,-0.442737,-8.744016,-0.367404,-0.725691,-18.517069,94.144310,62.336106,-18.252911,1.000000,0.648000,
254034675,93.173583,93.173583,34.339871,3,0.264343,0.012756,0.071106,0.961731,0.227481,0.100158,-8.744816,-0.786230,-1.115890,-18.443379,94.639818,62.024047,-18.377837,1.000000,0.678000,
254043978,94.094634,94.094634,34.335342,3,0.292114,0.010193,0.072449,0.953613,0.351682,0.038032,-8.850927,-0.857565,-1.009888,-18.563159,95.113874,61.787658,-18.499386,1.000000,0.708000,
254054839,94.718993,94.718993,34.335342,3,0.319702,0.007690,0.073730,0.944641,0.263964,0.462120,-9.359993,-1.068000,-1.462657,-18.996365,95.709825,61.536163,-18.825341,1.000000,0.738000,
254064059,95.134703,95.134703,34.335342,3,0.346802,0.005249,0.074890,0.934937,0.144603,-0.387917,-8.926945,-0.412933,-0.841322,-18.687337,96.168652,61.296773,-18.734831,0.984375,0.768000,
254073702,95.342833,95.342833,34.335342,3,0.373352,0.002869,0.076050,0.924561,0.327252,-0.515544,-10.202045,-0.510123,-0.823894,-19.977689,96.604159,61.009349,-19.549986,0.968750,0.798000,
254084750,95.460204,95.460204,34.339871,3,0.399353,0.000610,0.077148,0.913574,0.012029,-0.254654,-9.632297,-0.428990,-1.179565,-19.350039,97.062757,60.664980,-19.418852,0.937500,0.831000,
254094209,97.095671,97.095671,34.330812,3,0.424683,-0.001465,0.078186,0.901978,-0.763251,-0.032797,-10.466901,-0.150050,-2.058349,-20.090168,97.641823,60.478529,-19.859147,0.937500,0.858000,
254104003,97.331481,97.331481,34.339871,3,0.449341,-0.003540,0.079224,0.889832,-0.158588,-0.530332,-10.060554,-0.134922,-1.268043,-19.797997,98.175091,60.248924,-19.819042,0.937500,0.888000,
254114728,97.747313,97.747313,34.339871,3,0.473572,-0.005554,0.080139,0.877075,0.089599,-0.918714,-10.595784,0.007726,-0.979815,-20.396649,98.739935,59.981330,-20.197878,0.921875,0.921000,
254124127,98.253417,98.253417,34.335342,3,0.497253,-0.007507,0.080994,0.863770,-0.190048,-0.887459,-11.021029,0.111046,-1.360001,-20.772972,99.211620,59.729349,-20.575067,0.906250,0.906250,
254135147,98.461608,98.461608,34.335342,3,0.520508,-0.009338,0.081909,0.849854,0.920699,-0.009483,-10.011810,-1.115724,-0.679466,-19.771931,99.728148,59.425080,-20.048318,0.890625,0.890625,
254144364,99.175963,99.175963,34.330812,3,0.543579,-0.011230,0.082642,0.835205,0.394232,-1.041327,-11.172757,-0.009508,-0.915924,-20.996553,100.171469,59.166560,-20.670238,0.875000,0.875000,
254154208,100.034941,100.034941,34.339871,3,0.566101,-0.013062,0.083313,0.820007,0.180775,0.070177,-10.114880,-0.869795,-1.393754,-19.781781,100.727419,58.956093,-20.087528,0.875000,0.875000,
254165261,99.827239,99.827239,34.339871,3,0.587952,-0.014893,0.083862,0.804382,0.529233,0.135058,-10.250094,-1.056674,-1.104608,-19.952325,101.209199,58.632386,-19.998856,0.843750,0.845000,
254174713,101.047423,101.047423,34.330812,3,0.609070,-0.016479,0.084290,0.788452,0.257456,0.256981,-10.147756,-1.097818,-1.371613,-19.805909,101.732201,58.426354,-19.872309,0.843750,0.843750,
254184299,101.581359,101.581359,34.335342,3,0.629456,-0.018005,0.084534,0.772217,-0.059575,-0.438200,-9.450500,-0.309783,-1.428739,-19.153388,102.263180,58.225419,-19.400792,0.843750,0.843750,
254195347,101.671660,101.671660,34.330812,3,0.649414,-0.019531,0.084656,0.755432,0.054395,-0.707855,-10.453583,-0.156067,-1.455487,-20.172468,102.794381,57.935283,-19.906912,0.812500,0.813750,
254204550,101.816741,101.816741,34.344401,3,0.668884,-0.020996,0.084717,0.738220,-0.305050,-0.496783,-9.460265,-0.254680,-1.708388,-19.118914,103.143628,57.645646,-19.390093,0.796875,0.796875,
254215521,103.245970,103.245970,34.335342,3,0.688232,-0.022522,0.084595,0.720154,1.118954,-1.013438,-9.779340,0.129498,-0.360092,-19.686924,103.794035,57.441526,-19.584775,0.796875,0.796875,
254224733,102.739623,102.739623,34.339871,3,0.707458,-0.023987,0.084473,0.701294,-0.061848,-0.360381,-9.508330,-0.466216,-1.516864,-19.182936,104.124841,57.141926,-19.321226,0.765625,0.766875,
254234490,104.078124,104.078124,34.335342,3,0.726135,-0.025452,0.084351,0.681885,-0.051134,-1.084060,-8.701278,0.306136,-1.448162,-18.444397,104.672786,56.956574,-18.746142,0.765625,0.765625,
254245235,104.819487,104.819487,34.339871,3,0.744324,-0.026978,0.083984,0.661987,0.640084,-0.647180,-9.391321,-0.134822,-0.877274,-19.195228,105.311133,56.767233,-19.040683,0.765625,0.765625,
254254715,105.325957,105.325957,34.335342,3,0.761780,-0.028625,0.083496,0.641785,-0.482491,-0.969504,-8.961424,0.059414,-1.996486,-18.605670,105.851247,56.592703,-18.755371,0.765625,0.765625,
254264480,105.416808,105.416808,34.330812,3,0.778625,-0.030273,0.082886,0.621277,0.567409,-0.702586,-9.226556,-0.047102,-1.000139,-19.018271,106.321625,56.357216,-18.927801,0.750000,0.750000,
254275538,106.339476,106.339476,34.326283,3,0.794861,-0.031921,0.082092,0.600403,-1.064454,-0.351961,-8.402921,-0.729238,-2.364807,-17.910505,106.947114,56.160744,-18.260588,0.750000,0.750000,
254284874,106.249144,106.249144,34.330812,3,0.810364,-0.033569,0.081177,0.579285,-0.152855,-0.395864,-8.441810,-0.465033,-1.523111,-18.101963,107.339885,55.910517,-18.156554,0.734375,0.734375,
254295850,107.109191,107.109191,34.339871,3,0.825256,-0.035339,0.080139,0.557922,-0.025342,0.009896,-8.398718,-0.803520,-1.261155,-18.064941,107.909249,55.685729,-18.096469,0.718750,0.718750,
254305019,107.706633,107.706633,34.330812,3,0.839478,-0.037109,0.079041,0.536316,-0.588888,-0.625619,-7.728476,-0.403222,-1.923711,-17.322206,108.381177,55.503603,-17.588655,0.718750,0.718750,
254314759,107.615782,107.615782,34.335342,3,0.853027,-0.039001,0.077881,0.514526,-0.130773,-0.414185,-8.372071,-0.475529,-1.538680,-18.025776,108.777613,55.240308,-17.875352,0.687500,0.688750,
254325444,108.656157,108.656157,34.335342,3,0.866150,-0.040955,0.076721,0.492126,-0.414815,-0.373880,-7.488947,-0.589030,-1.643070,-17.102459,109.344166,55.043446,-17.368436,0.687500,0.687500,
254335064,109.371215,109.371215,34.330812,3,0.878662,-0.042908,0.075500,0.469421,-0.499067,0.244290,-8.162105,-1.229618,-1.472991,-17.750721,109.877911,54.875719,-17.619165,0.687500,0.687500,
254344834,110.023650,110.023650,34.339871,3,0.890625,-0.044922,0.074219,0.446411,-0.028062,-0.640363,-7.402190,-0.185859,-1.496750,-17.073132,110.440541,54.725642,-17.261038,0.687500,0.687500,
254355881,109.516417,109.516417,34.344401,3,0.901917,-0.046936,0.072815,0.423096,0.402958,-0.100285,-7.940350,-0.395157,-0.928892,-17.683685,110.870888,54.424949,-17.538242,0.671875,0.671875,
254365295,110.738280,110.738280,34.335342,3,0.912659,-0.048950,0.071411,0.399414,-0.342464,0.008340,-7.626687,-0.927007,-1.362626,-17.251227,111.357647,54.247216,-17.349999,0.656250,0.656250,
254376146,111.453459,111.453459,34.330812,3,0.922607,-0.050903,0.069946,0.375916,-0.278420,-0.649765,-6.974930,-0.370997,-1.678931,-16.593618,111.963292,54.077897,-16.853911,0.671875,0.671875,
254385402,111.334868,111.334868,34.326283,3,0.931824,-0.052795,0.068481,0.352478,-0.168950,-0.113279,-7.732410,-0.752219,-1.332240,-17.378898,112.345324,53.843517,-17.198237,0.640625,0.641875,
254395167,112.077819,112.077819,34.330812,3,0.940369,-0.054688,0.066895,0.328979,-0.285236,-0.307298,-7.136102,-0.670319,-1.470892,-16.770257,112.820239,53.649064,-16.917540,0.640625,0.640625,
254405989,113.029296,113.029296,34.335342,3,0.948364,-0.056519,0.065308,0.305298,-0.049596,-0.027104,-7.389397,-0.686800,-1.138941,-17.075283,113.438979,53.488203,-17.020998,0.640625,0.640625,
254415418,113.445220,113.445220,34.335342,3,0.955627,-0.058289,0.063721,0.281677,-0.097354,0.409959,-7.302105,-0.959390,-0.788867,-17.014361,113.943732,53.328501,-17.016645,0.640625,0.640625,
254425139,113.445220,113.445220,34.335342,3,0.962402,-0.060059,0.062073,0.257629,0.015105,-0.456863,-6.692931,-0.348991,-1.384359,-16.361867,114.368067,53.112372,-16.587198,0.625000,0.625000,
254436223,114.722411,114.722411,34.344401,3,0.968506,-0.061768,0.060425,0.233582,-0.781260,0.345240,-7.218110,-1.483341,-1.116108,-16.833644,115.022092,52.966276,-16.748833,0.640625,0.640625,
254445699,114.903228,114.903228,34.335342,3,0.973938,-0.063416,0.058777,0.209595,-0.524662,-0.121398,-6.367163,-0.983244,-1.273647,-15.991109,115.501048,52.801209,-16.251866,0.625000,0.625000,
254456434,115.437896,115.437896,34.339871,3,0.978821,-0.065002,0.057129,0.185608,0.113753,0.075442,-7.193177,-0.552305,-0.966710,-16.904428,116.055035,52.612682,-16.679862,0.625000,0.625000,
254465688,115.527800,115.527800,34.335342,3,0.983032,-0.066528,0.055481,0.161621,-0.132735,-0.090032,-6.670114,-0.677339,-1.122989,-16.338981,116.442456,52.400262,-16.456291,0.609375,0.609375,
254475415,116.153411,116.153411,34.335342,3,0.986694,-0.067993,0.053955,0.137634,0.044430,-0.183150,-6.378620,-0.469961,-1.123773,-16.061951,116.897298,52.210938,-16.197657,0.593750,0.593750,
254486119,116.687621,116.687621,34.339871,3,0.989746,-0.069397,0.052429,0.113281,0.020107,0.118348,-7.056700,-0.630344,-0.934499,-16.765368,117.415916,52.007801,-16.570002,0.593750,0.593750,
254495597,117.521361,117.521361,34.339871,3,0.992188,-0.070679,0.050964,0.088989,0.290088,-0.183909,-6.370159,-0.249448,-1.087256,-16.079876,117.927894,51.867720,-16.248543,0.593750,0.593750,
254505294,118.562743,118.562743,34.339871,3,0.994080,-0.071838,0.049500,0.064758,-0.386735,0.090085,-6.615435,-0.987874,-0.953212,-16.283010,118.548919,51.782322,-16.271146,0.609375,0.609375,
254516385,118.743132,118.743132,34.330812,3,0.995361,-0.072937,0.048035,0.040710,-0.585056,-0.753596,-5.907449,-1.048693,-1.672103,-15.449760,119.158692,51.632646,-15.732424,0.625000,0.625000,
254525864,119.160338,119.160338,34.330812,3,0.996033,-0.073914,0.046631,0.016846,-0.269351,-0.284425,-6.094339,-0.811846,-1.202804,-15.732272,119.647720,51.483711,-15.732325,0.625000,0.625000,
254536665,119.722930,119.722930,34.344401,3,0.996155,-0.074890,0.045227,-0.006897,-0.221900,-0.291994,-6.429861,-0.811984,-1.247656,-16.066438,120.216935,51.318911,-15.951459,0.625000,0.625000,
254545912,119.722930,119.722930,34.344401,3,0.995667,-0.075806,0.043884,-0.030579,0.168537,-0.206503,-5.621577,-0.362260,-1.054208,-15.316946,120.598309,51.120073,-15.535304,0.609375,0.609375,
254555626,120.556395,120.556395,34.344401,3,0.994690,-0.076660,0.042480,-0.054199,0.169980,0.086184,-6.695423,-0.451078,-0.924037,-16.419144,121.086232,50.955801,-16.114987,0.609375,0.609375,
254566546,120.945464,120.945464,34.335342,3,0.993103,-0.077515,0.041138,-0.077637,-0.117901,-0.166931,-5.670235,-0.675350,-0.981813,-15.348419,121.615422,50.771852,-15.612220,0.609375,0.609375,
254575872,122.286315,122.286315,34.330812,3,0.990967,-0.078369,0.039734,-0.101074,0.304375,0.238706,-6.479276,-0.276014,-0.785998,-16.238106,122.213845,50.697896,-16.022716,0.625000,0.625000,
254585747,121.959471,121.959471,34.326283,3,0.988342,-0.079224,0.038391,-0.124207,-0.150286,-0.211916,-5.474115,-0.722025,-0.977808,-15.146085,122.666166,50.519239,-15.447762,0.625000,0.625000,
254596719,122.820830,122.820830,34.335342,3,0.985168,-0.079956,0.036926,-0.147400,0.441367,-0.013404,-6.232325,-0.185450,-1.057691,-15.956906,123.248451,50.361989,-15.781693,0.625000,0.625000,
254606162,123.238219,123.238219,34.335342,3,0.981384,-0.080750,0.035461,-0.170532,-0.270412,0.061735,-6.086735,-0.827881,-0.742918,-15.793218,123.721397,50.211661,-15.789252,0.625000,0.625000,
254616826,123.474120,123.474120,34.344401,3,0.977051,-0.081482,0.033997,-0.193787,-0.254074,-0.621461,-5.684967,-1.025039,-1.298556,-15.283104,124.209683,50.020197,-15.457286,0.609375,0.609375,
254626338,124.071471,124.071471,34.335342,3,0.972168,-0.082092,0.032410,-0.217041,-0.200385,0.095622,-6.331358,-0.774489,-0.749258,-16.045886,124.658830,49.851370,-15.843331,0.609375,0.609375,
254635908,124.307891,124.307891,34.344401,3,0.966736,-0.082764,0.030823,-0.239990,0.036556,-0.479965,-5.493407,-0.739535,-1.234016,-15.126704,125.069545,49.666436,-15.373319,0.593750,0.593750,
254646916,124.161956,124.161956,34.330812,3,0.960876,-0.083435,0.029236,-0.262451,-0.058125,-0.434152,-5.674070,-0.836579,-1.162627,-15.311194,125.445372,49.394690,-15.332577,0.562500,0.562500,
254656153,125.294493,125.294493,34.326283,3,0.954468,-0.084106,0.027588,-0.284790,-0.347004,-0.369989,-5.504216,-1.053117,-0.914690,-15.153252,125.872733,49.237307,-15.214964,0.562500,0.562500,
254666008,125.830229,125.830229,34.330812,3,0.947632,-0.084595,0.026001,-0.306885,0.247985,-0.477343,-5.337379,-0.614697,-1.306535,-14.971070,126.349293,49.084905,-15.055002,0.546875,0.546875,
254676798,126.274932,126.274932,34.339871,3,0.940247,-0.085083,0.024353,-0.328796,0.194365,0.204506,-6.255863,-0.362557,-0.868384,-15.994486,126.864024,48.904189,-15.671180,0.546875,0.546875,
254686267,126.066710,126.066710,34.339871,3,0.932312,-0.085510,0.022705,-0.350647,0.497709,-0.366484,-5.197464,-0.398966,-1.352979,-14.844857,127.177139,48.671754,-15.129224,0.515625,0.519875,
254697082,127.317198,127.317198,34.339871,3,0.923950,-0.085938,0.020935,-0.372131,0.381994,-0.096339,-5.968594,-0.403637,-1.199274,-15.650274,127.728822,48.518677,-15.470964,0.515625,0.515625,
254706546,127.824767,127.824767,34.335342,3,0.915100,-0.086304,0.019165,-0.393372,-0.127073,0.285797,-5.313655,-0.433325,-0.479696,-15.086303,128.205319,48.387156,-15.218676,0.531250,0.531250,
254716048,128.332335,128.332335,34.330812,3,0.905701,-0.086731,0.017212,-0.414612,0.230282,-0.228287,-5.253201,-0.555244,-1.077460,-14.925456,128.688209,48.259909,-15.026362,0.531250,0.531250,
254727098,129.075988,129.075988,34.335342,3,0.895874,-0.087097,0.015198,-0.435425,0.257650,-0.206342,-5.598675,-0.573296,-1.131212,-15.266696,129.293157,48.135320,-15.183988,0.546875,0.546875,
254736398,128.867705,128.867705,34.335342,3,0.885620,-0.087463,0.013123,-0.455872,-0.029003,-0.088436,-4.783309,-0.583386,-0.717206,-14.497488,129.660534,47.951510,-14.733736,0.531250,0.531250,
254746259,129.792449,129.792449,34.330812,3,0.874939,-0.087830,0.010986,-0.476074,0.091098,-0.146050,-5.583269,-0.652817,-0.959431,-15.267947,130.157312,47.816025,-15.084108,0.531250,0.531250,
254757041,130.237334,130.237334,34.339871,3,0.863770,-0.088074,0.008789,-0.496033,-0.545064,-0.192797,-4.674572,-0.923269,-0.307632,-14.411562,130.687041,47.669520,-14.643006,0.531250,0.531250,
254766514,130.745574,130.745574,34.335342,3,0.852295,-0.088379,0.006531,-0.515564,0.125007,-0.592808,-5.215322,-0.995573,-1.134117,-14.833304,131.148903,47.535706,-14.767816,0.531250,0.531250,
254777423,131.279998,131.279998,34.339871,3,0.840393,-0.088562,0.004211,-0.534729,-0.107026,0.157162,-5.315803,-0.444931,-0.615970,-15.068519,131.691118,47.386411,-14.965037,0.546875,0.546875,
254786841,131.488860,131.488860,34.339871,3,0.828064,-0.088745,0.001953,-0.553589,-0.499943,-0.872959,-4.579002,-1.459605,-0.531041,-14.228191,132.098915,47.229197,-14.481764,0.531250,0.531250,
254796404,131.877806,131.877806,34.330812,3,0.815430,-0.088867,-0.000305,-0.572021,-0.493404,-0.140971,-5.454656,-0.860306,-0.382784,-15.202131,132.508448,47.058435,-14.954231,0.515625,0.515625,
254807423,132.503905,132.503905,34.330812,3,0.802368,-0.088806,-0.002502,-0.590210,-0.190174,-0.787741,-4.695280,-1.283097,-0.738661,-14.334768,133.025289,46.899668,-14.547944,0.515625,0.515625,
254816939,133.575591,133.575591,34.339871,3,0.789001,-0.088745,-0.004639,-0.607971,-0.163639,-0.386188,-5.309927,-0.952401,-0.722602,-14.995716,133.573976,46.820573,-14.841621,0.546875,0.545625,
254826561,132.949401,132.949401,34.339871,3,0.775269,-0.088562,-0.006653,-0.625366,-0.319493,-0.273051,-4.688382,-0.808665,-0.436505,-14.421072,133.906904,46.610311,-14.565798,0.515625,0.515625,
254837585,133.992339,133.992339,34.339871,3,0.761108,-0.088318,-0.008545,-0.642517,-0.533570,-0.297192,-4.924268,-0.877544,-0.252282,-14.680563,134.435840,46.458238,-14.641069,0.515625,0.515625,
254846911,134.173522,134.173522,34.330812,3,0.746521,-0.088013,-0.010376,-0.659424,-0.116995,-0.014937,-5.052334,-0.542273,-0.620156,-14.790130,134.819322,46.289825,-14.738834,0.515625,0.515625,
254857598,134.708647,134.708647,34.335342,3,0.731567,-0.087646,-0.012268,-0.675964,-0.498610,-0.644179,-4.514437,-1.139206,-0.215185,-14.241829,135.292499,46.124820,-14.412865,0.500000,0.500000,
254866916,136.169646,136.169646,34.335342,3,0.716370,-0.087280,-0.014038,-0.692139,-0.376601,0.003026,-5.179835,-0.539424,-0.377483,-14.954716,135.885898,46.086730,-14.768244,0.546875,0.530000,
254876610,135.453276,135.453276,34.339871,3,0.700745,-0.086914,-0.015808,-0.707886,-0.478978,-0.416328,-4.488907,-0.870601,-0.169524,-14.249021,136.251042,45.899298,-14.427703,0.531250,0.531250,
254887712,136.677672,136.677672,34.330812,3,0.684875,-0.086548,-0.017395,-0.723267,0.101614,0.405738,-5.213912,-0.135641,-0.874995,-14.957540,136.839568,45.781863,-14.775205,0.546875,0.546875,
254897173,136.677672,136.677672,34.330812,3,0.668762,-0.085999,-0.018982,-0.738220,-0.595278,-0.058175,-4.405723,-0.454349,-0.041441,-14.224291,137.241772,45.628747,-14.413878,0.531250,0.531250,
254908011,136.677672,136.677672,34.330812,3,0.652344,-0.085388,-0.020447,-0.752808,-0.341258,-0.026602,-4.723340,-0.462051,-0.335153,-14.502209,137.629761,45.407069,-14.471814,0.500000,0.500000,
254917268,137.540801,137.540801,34.339871,3,0.635620,-0.084778,-0.021851,-0.767029,-0.031439,0.484767,-4.790564,-0.018607,-0.744057,-14.556678,138.032801,45.261952,-14.527474,0.500000,0.500000,
254926930,138.555907,138.555907,34.330812,3,0.618530,-0.083984,-0.023193,-0.780884,0.008941,-0.413686,-4.283691,-0.846703,-0.517613,-13.986755,138.567411,45.186546,-14.172831,0.531250,0.530000,
254937849,137.422423,137.422423,34.335342,3,0.601135,-0.083191,-0.024597,-0.794434,-0.170341,0.256412,-4.859867,-0.215776,-0.587374,-14.626170,138.845500,44.897105,-14.470166,0.476250,0.497000,
254947169,138.674285,138.674285,34.335342,3,0.583374,-0.082336,-0.025940,-0.807617,-0.029222,-0.343464,-4.243812,-0.753457,-0.449333,-13.972672,139.231292,44.747292,-14.143876,0.468750,0.470000,
254956909,138.882781,138.882781,34.335342,3,0.565369,-0.081360,-0.027222,-0.820374,-0.197633,-0.122237,-4.551998,-0.516739,-0.394763,-14.315714,139.601215,44.568178,-14.256581,0.437500,0.440000,
254967981,139.509825,139.509825,34.335342,3,0.546997,-0.080261,-0.028564,-0.832764,-0.276133,0.284377,-4.506086,-0.100533,-0.477782,-14.298661,140.076681,44.399521,-14.284180,0.437500,0.437500,
254977458,139.927367,139.927367,34.335342,3,0.528442,-0.079163,-0.029968,-0.844727,-0.022075,-0.130770,-4.010905,-0.521209,-0.460922,-13.752881,140.468893,44.252099,-13.935718,0.437500,0.437500,
254988127,140.046263,140.046263,34.339871,3,0.509766,-0.078003,-0.031311,-0.856201,0.011206,0.169677,-4.726666,-0.340894,-0.719739,-14.460508,140.861005,44.049627,-14.279913,0.406250,0.406250,
254997607,140.644072,140.644072,34.330812,3,0.490845,-0.076843,-0.032654,-0.867249,0.497386,-0.361158,-4.057532,-0.975286,-0.768120,-13.708486,141.237369,43.894738,-13.905133,0.390625,0.390625,
255007177,141.269652,141.269652,34.330812,3,0.471497,-0.075562,-0.034058,-0.877991,0.231051,-0.139411,-4.359175,-0.685171,-0.687786,-14.063344,141.662834,43.763832,-14.008899,0.390625,0.390625,
255018191,141.806182,141.806182,34.335342,3,0.451904,-0.074280,-0.035461,-0.888245,0.379436,-0.020313,-4.311779,-0.672464,-0.857623,-13.992589,142.170846,43.625967,-13.998201,0.406250,0.406250,
255027596,141.896331,141.896331,34.330812,3,0.432251,-0.072998,-0.036865,-0.898071,0.450456,0.026888,-3.951471,-0.652583,-0.881026,-13.625015,142.529144,43.466210,-13.753442,0.390625,0.390625,
255037326,142.314482,142.314482,34.330812,3,0.412476,-0.071838,-0.038269,-0.907349,0.168537,0.135962,-4.434547,-0.449606,-0.790272,-14.145853,142.911201,43.304063,-14.010813,0.375000,0.375000,
255048225,143.566924,143.566924,34.330812,3,0.392517,-0.070679,-0.039734,-0.916138,0.015349,-0.396896,-3.519912,-0.640433,-0.199261,-13.275953,143.505211,43.233548,-13.528839,0.406250,0.405000,
255057696,142.523040,142.523040,34.330812,3,0.372437,-0.069641,-0.041199,-0.924500,0.137693,0.141514,-4.187700,-0.406773,-0.739563,-13.905185,143.730069,42.988205,-13.775677,0.356250,0.375000,
255068372,144.012938,144.012938,34.339871,3,0.352234,-0.068604,-0.042664,-0.932434,0.244522,-0.435200,-3.423644,-0.806957,-0.281046,-13.150367,144.241272,42.879925,-13.365554,0.375000,0.375000,
255077853,144.521300,144.521300,34.335342,3,0.332031,-0.067627,-0.044128,-0.939819,-0.063028,0.185406,-4.025163,-0.228540,-0.623099,-13.772758,144.699630,42.781592,-13.632625,0.375000,0.375000,
255087364,144.820586,144.820586,34.330812,3,0.311768,-0.066589,-0.045654,-0.946716,0.191829,0.170733,-3.749080,-0.420294,-0.731251,-13.459955,145.128565,42.667405,-13.519376,0.390625,0.390625,
255098413,144.849425,144.849425,34.339871,3,0.291504,-0.065552,-0.047180,-0.953186,0.122226,-0.001618,-3.507498,-0.442399,-0.523001,-13.240079,145.546931,42.489384,-13.336195,0.375000,0.375000,
255107629,145.565947,145.565947,34.335342,3,0.271118,-0.064514,-0.048767,-0.959167,-0.298264,0.434260,-3.988142,0.093146,-0.731838,-13.753034,145.941471,42.364644,-13.609587,0.375000,0.375000,
255117504,145.983733,145.983733,34.335342,3,0.250671,-0.063354,-0.050415,-0.964661,0.126989,-0.117477,-3.381041,-0.499190,-0.398971,-13.123226,146.367112,42.239819,-13.290597,0.375000,0.375000,
255128262,145.983733,145.983733,34.335342,3,0.230103,-0.062195,-0.052063,-0.969788,-0.047978,0.469774,-4.127393,-0.145714,-0.942316,-13.843323,146.748917,42.047573,-13.653115,0.343750,0.345000,
255137774,147.863646,147.863646,34.335342,3,0.209595,-0.060974,-0.053772,-0.974426,0.284110,0.133289,-3.637695,-0.554079,-0.717105,-13.337162,147.357044,42.049217,-13.445886,0.393750,0.375000,
255148527,146.729155,146.729155,34.339871,3,0.189026,-0.059753,-0.055542,-0.978577,-0.031842,0.073831,-3.699469,-0.298095,-0.546601,-13.448106,147.690822,41.833056,-13.447345,0.375000,0.375000,
255157989,147.654998,147.654998,34.335342,3,0.168518,-0.058350,-0.057373,-0.982300,0.499365,0.541901,-3.898770,-0.658306,-1.188522,-13.529900,148.079327,41.700869,-13.501490,0.375000,0.375000,
255167709,148.072325,148.072325,34.335342,3,0.147888,-0.057007,-0.059204,-0.985596,0.301620,-0.489696,-3.194912,-0.735971,-0.056840,-12.962623,148.482759,41.574084,-13.148064,0.375000,0.375000,
255178694,148.400542,148.400542,34.339871,3,0.127258,-0.055664,-0.061035,-0.988403,0.004553,0.359225,-3.751383,-0.266178,-0.855949,-13.464589,148.923227,41.416976,-13.355663,0.359375,0.359375,
255187948,149.507445,149.507445,34.326283,3,0.106750,-0.054321,-0.062988,-0.990784,0.075351,-0.181965,-3.176105,-0.419272,-0.274087,-12.948393,149.415387,41.364947,-13.088544,0.406250,0.389375,
255198947,149.326537,149.326537,34.335342,3,0.086426,-0.052979,-0.064880,-0.992737,0.183550,0.105960,-3.998584,-0.536619,-0.687792,-13.705578,149.852863,41.204362,-13.493238,0.390625,0.390625,
255208319,150.043914,150.043914,34.330812,3,0.066223,-0.051636,-0.066772,-0.994202,0.001157,-0.076218,-3.325004,-0.326005,-0.393986,-13.085891,150.274266,41.104045,-13.226071,0.406250,0.406250,
255217933,150.252623,150.252623,34.330812,3,0.046021,-0.050354,-0.068604,-0.995300,-0.132733,-0.390545,-3.257271,-0.216980,-0.066999,-13.076842,150.664791,40.975858,-13.128196,0.406250,0.406250,
255228871,150.490172,150.490172,34.339871,3,0.025940,-0.049011,-0.070435,-0.995972,-0.272776,0.190201,-3.843977,-0.081952,-0.725717,-13.592782,151.079453,40.807575,-13.432905,0.390625,0.390625,
255238268,150.699431,150.699431,34.339871,3,0.005920,-0.047668,-0.072205,-0.996216,-0.325992,-0.239194,-3.151573,0.024546,-0.220797,-12.966128,151.391194,40.641999,-13.126762,0.359375,0.363625,
255247821,151.027190,151.027190,34.344401,3,-0.014038,-0.046387,-0.073914,-0.996094,-0.312308,-0.067477,-3.880763,-0.059696,-0.515956,-13.657824,151.710673,40.469995,-13.475070,0.343750,0.343750,
255258986,151.506560,151.506560,34.330812,3,-0.033875,-0.045044,-0.075562,-0.995544,-0.633487,-0.402231,-2.977465,0.362434,-0.093068,-12.846942,152.123524,40.303144,-13.063101,0.328125,0.328125,
255268472,151.535399,151.535399,34.339871,3,-0.053589,-0.043579,-0.077148,-0.994629,-0.005010,-0.387380,-3.540227,-0.301300,-0.146140,-13.349482,152.395056,40.108346,-13.250932,0.281250,0.298125,
255279222,152.280730,152.280730,34.344401,3,-0.073364,-0.041931,-0.078674,-0.993286,-0.026462,-0.021813,-3.552722,-0.311898,-0.518583,-13.306813,152.804032,39.952246,-13.287583,0.265625,0.268125,
255288496,152.879210,152.879210,34.335342,3,-0.093201,-0.040100,-0.080200,-0.991577,-0.127183,-0.539200,-2.824253,-0.049045,0.069315,-12.673945,153.188115,39.843661,-12.885117,0.281250,0.281250,
255298204,153.297820,153.297820,34.335342,3,-0.112976,-0.038208,-0.081543,-0.989502,0.185116,0.037597,-3.960392,-0.562124,-0.604116,-13.677077,153.594774,39.723399,-13.404539,0.281250,0.281250,
255309052,153.506591,153.506591,34.335342,3,-0.132629,-0.036194,-0.082886,-0.987000,-0.298231,-0.561072,-2.949578,0.148285,-0.006739,-12.812027,154.008452,39.574179,-13.015929,0.265625,0.265625,
255318374,154.133483,154.133483,34.335342,3,-0.152588,-0.034119,-0.084167,-0.984131,0.098390,0.035397,-3.626442,-0.448504,-0.569509,-13.356718,154.400180,39.463951,-13.239441,0.281250,0.281250,
255328108,154.732604,154.732604,34.326283,3,-0.172546,-0.031982,-0.085327,-0.980774,-0.003644,-0.274729,-2.913268,-0.182559,-0.208440,-12.715015,154.845954,39.377946,-12.895485,0.296875,0.296875,
255339212,155.388427,155.388427,34.335342,3,-0.192322,-0.029907,-0.086365,-0.977051,-0.079484,-0.077279,-3.387280,-0.217851,-0.496568,-13.148901,155.383967,39.293441,-13.061690,0.328125,0.326875,
255348682,155.268798,155.268798,34.330812,3,-0.211853,-0.027771,-0.087280,-0.973022,-0.185918,0.049372,-3.041254,-0.134839,-0.599938,-12.788702,155.733942,39.159121,-12.882646,0.328125,0.328125,
255359565,155.059996,155.059996,34.330812,3,-0.231262,-0.025635,-0.088135,-0.968567,-0.006851,-0.445254,-3.026169,-0.076592,-0.090037,-12.861645,156.033095,38.942163,-12.868875,0.281250,0.298125,
255368819,156.224791,156.224791,34.335342,3,-0.250488,-0.023438,-0.088867,-0.963745,-0.023341,0.287394,-3.426850,-0.432438,-0.805869,-13.121148,156.428802,38.842874,-13.034332,0.281250,0.281250,
255378515,156.434172,156.434172,34.335342,3,-0.269409,-0.021240,-0.089600,-0.958618,-0.148716,-0.365543,-2.573375,0.085402,-0.191170,-12.400617,156.805871,38.723246,-12.618698,0.281250,0.281250,
255389376,156.134551,156.134551,34.339871,3,-0.288208,-0.019043,-0.090149,-0.953125,0.227606,0.220662,-3.270990,-0.597376,-0.585114,-12.984601,157.099953,38.506222,-12.858685,0.234375,0.251250,
255398610,157.688323,157.688323,34.335342,3,-0.306702,-0.016846,-0.090637,-0.947327,0.062340,-0.022656,-2.677461,-0.272239,-0.381692,-12.433375,157.565189,38.459459,-12.579735,0.281250,0.281250,
255409531,157.688323,157.688323,34.335342,3,-0.325012,-0.014648,-0.091125,-0.941223,-0.020286,-0.371833,-2.836693,-0.005937,-0.187800,-12.651274,158.007506,38.335300,-12.626654,0.281250,0.281250,
255418750,157.807463,157.807463,34.339871,3,-0.343079,-0.012451,-0.091492,-0.934753,0.077280,0.294942,-3.066396,-0.505744,-0.673214,-12.761073,158.322908,38.194488,-12.714816,0.265625,0.265625,
255428561,158.316008,158.316008,34.335342,3,-0.361023,-0.010254,-0.091858,-0.927979,-0.028492,-0.344605,-2.499383,0.038572,-0.182000,-12.313375,158.695766,38.072874,-12.451523,0.265625,0.265625,
255439625,158.824034,158.824034,34.330812,3,-0.378784,-0.008118,-0.092224,-0.920837,0.152081,0.430991,-3.159927,-0.673765,-0.719666,-12.834996,159.140224,37.945572,-12.703030,0.281250,0.281250,
255449117,159.542052,159.542052,34.326283,3,-0.396484,-0.005920,-0.092529,-0.913330,-0.123986,0.077257,-2.661863,-0.194486,-0.582671,-12.392822,159.575131,37.874531,-12.499572,0.312500,0.308250,
255458694,159.779326,159.779326,34.335342,3,-0.413940,-0.003784,-0.092773,-0.905579,0.083085,0.060834,-2.922691,-0.346487,-0.467094,-12.665056,159.975492,37.776555,-12.608107,0.328125,0.328125,
255469691,159.570403,159.570403,34.335342,3,-0.430969,-0.001648,-0.093018,-0.897522,0.048114,0.414151,-3.044949,-0.599561,-0.725444,-12.725280,160.314287,37.590759,-12.684958,0.281250,0.295125,
255479091,160.736266,160.736266,34.339871,3,-0.447754,0.000427,-0.093201,-0.889282,0.048684,-0.098025,-2.511100,-0.156150,-0.326198,-12.287462,160.746154,37.524174,-12.424251,0.326250,0.322125,
255489973,160.616027,160.616027,34.335342,3,-0.464294,0.002563,-0.093323,-0.880737,0.187027,0.636176,-3.263219,-0.899365,-0.749395,-12.919573,161.129331,37.368937,-12.749118,0.312500,0.312500,
255499167,161.334197,161.334197,34.330812,3,-0.480591,0.004639,-0.093567,-0.871948,-0.077837,-0.050869,-2.187346,-0.098805,-0.408900,-11.950472,161.510806,37.283154,-12.225310,0.328125,0.328125,
255508904,161.842894,161.842894,34.326283,3,-0.496460,0.006653,-0.093750,-0.862976,0.292560,0.145051,-3.101921,-0.524623,-0.348082,-12.857639,161.935353,37.195771,-12.640034,0.343750,0.343750,
255519885,161.453887,161.453887,34.335342,3,-0.512146,0.008667,-0.093994,-0.853699,0.231346,0.443845,-2.562216,-0.708922,-0.446053,-12.277698,162.252916,37.006248,-12.402391,0.312500,0.312500,
255529326,162.199919,162.199919,34.339871,3,-0.527649,0.010620,-0.094238,-0.844116,0.009318,-0.078123,-2.512020,-0.138895,-0.387541,-12.285689,162.591823,36.884183,-12.325850,0.312500,0.312500,
255538923,162.290740,162.290740,34.335342,3,-0.542969,0.012573,-0.094482,-0.834290,0.217328,0.702410,-2.943542,-0.967827,-0.584797,-12.613545,162.888853,36.728782,-12.514542,0.281250,0.282500,
255550001,163.336638,163.336638,34.335342,3,-0.558105,0.014465,-0.094788,-0.824219,0.119023,0.279332,-2.421051,-0.503615,-0.410106,-12.152534,163.378855,36.644653,-12.277111,0.312500,0.312500,
255559236,163.545623,163.545623,34.335342,3,-0.572876,0.016296,-0.095093,-0.813904,0.248849,0.697291,-3.170533,-1.000341,-0.554673,-12.851092,163.747926,36.544984,-12.653566,0.328125,0.328125,
255570186,163.635955,163.635955,34.330812,3,-0.587463,0.018005,-0.095459,-0.803406,0.070993,0.141454,-2.405929,-0.361331,-0.399453,-12.155551,164.126414,36.398937,-12.326934,0.312500,0.312500,
255579329,163.964659,163.964659,34.335342,3,-0.601868,0.019653,-0.095886,-0.792603,0.045224,0.471755,-3.123069,-0.732965,-0.634549,-12.805207,164.428357,36.262916,-12.640619,0.296875,0.296875,
255589053,164.563292,164.563292,34.326283,3,-0.616028,0.021118,-0.096313,-0.781494,0.125602,0.340248,-2.796118,-0.597392,-0.455336,-12.517955,164.805643,36.156513,-12.560167,0.312500,0.312500,
255599799,164.892058,164.892058,34.330812,3,-0.630005,0.022522,-0.096802,-0.770203,-0.051211,-0.118588,-2.564559,-0.100076,-0.488818,-12.322503,165.209657,36.033779,-12.404290,0.312500,0.312500,
255609316,164.472991,164.472991,34.330812,3,-0.643677,0.023804,-0.097412,-0.758667,0.135036,0.244440,-3.105164,-0.547344,-0.463788,-12.831587,165.414054,35.826950,-12.684544,0.267500,0.285500,
255619031,165.101073,165.101073,34.330812,3,-0.657104,0.025085,-0.098022,-0.746948,0.038806,-0.299794,-2.248284,0.083125,-0.330529,-12.043170,165.702996,35.674399,-12.263888,0.218750,0.255500,
255630114,165.938201,165.938201,34.330812,3,-0.670227,0.026245,-0.098755,-0.735046,-0.067083,-0.029679,-3.019075,-0.254817,-0.614794,-12.750551,166.141616,35.559917,-12.583074,0.234375,0.234375,
255639384,165.667205,165.667205,34.344401,3,-0.683105,0.027466,-0.099426,-0.722961,-0.017626,-0.238533,-2.169587,0.028582,-0.399785,-11.944026,166.381922,35.394667,-12.163945,0.187500,0.204375,
255650342,166.685088,166.685088,34.335342,3,-0.695740,0.028687,-0.100037,-0.710693,0.258175,0.088872,-2.965587,-0.390435,-0.291479,-12.740030,166.825771,35.289783,-12.541780,0.203125,0.203125,
255659554,166.775450,166.775450,34.330812,3,-0.708191,0.030029,-0.100708,-0.698181,-0.018574,0.065295,-2.737782,-0.342790,-0.527899,-12.472055,167.140909,35.169096,-12.496050,0.203125,0.203125,
255669316,167.493499,167.493499,34.326283,3,-0.720398,0.031433,-0.101318,-0.685364,-0.129404,-0.581070,-2.032332,0.355919,-0.537892,-11.815831,167.549689,35.093840,-12.049914,0.234375,0.230125,
255680104,167.312255,167.312255,34.335342,3,-0.732544,0.032837,-0.101868,-0.672241,0.428016,-0.048587,-2.893379,-0.225207,-0.127310,-12.717513,167.883057,34.929985,-12.487772,0.203125,0.203125,
255689588,167.940520,167.940520,34.335342,3,-0.744446,0.034302,-0.102356,-0.658936,0.004057,-0.237290,-2.109342,0.006798,-0.424701,-11.877931,168.224588,34.824142,-12.087796,0.203125,0.203125,
255699415,168.959136,168.959136,34.326283,3,-0.755981,0.035767,-0.102783,-0.645447,0.179649,-0.264816,-2.430970,0.019704,-0.329238,-12.231357,168.703700,34.787536,-12.181950,0.253125,0.233125,
255710531,168.959136,168.959136,34.326283,3,-0.767273,0.037292,-0.103088,-0.631897,0.420203,-0.365182,-2.008599,0.202701,-0.046841,-11.877824,169.137519,34.684349,-11.982482,0.303125,0.263125,
255720005,168.778441,168.778441,34.335342,3,-0.778198,0.038879,-0.103271,-0.618286,-0.009578,-0.540569,-1.967834,0.291327,-0.508852,-11.751059,169.398330,34.531493,-11.830701,0.265625,0.265625,
255730736,168.778441,168.778441,34.335342,3,-0.788879,0.040527,-0.103271,-0.604492,0.253505,0.068822,-2.530083,-0.300241,-0.224560,-12.316663,169.652024,34.328535,-12.149431,0.215625,0.235625,
255739993,169.705718,169.705718,34.330812,3,-0.799316,0.042175,-0.103088,-0.590515,0.113727,-0.418556,-1.792389,0.221075,-0.360666,-11.597337,169.979390,34.227622,-11.787330,0.203125,0.205625,
255749735,170.124480,170.124480,34.330812,3,-0.809570,0.043884,-0.102783,-0.576294,0.202504,-0.203362,-2.329709,-0.021578,-0.327359,-12.128136,170.339405,34.126011,-12.010853,0.218750,0.218750,
255760489,170.752379,170.752379,34.330812,3,-0.819519,0.045593,-0.102295,-0.562012,0.289697,-0.237735,-2.079671,0.073011,-0.221277,-11.904839,170.783040,34.044777,-11.941320,0.265625,0.248750,
255769878,171.142791,171.142791,34.321754,3,-0.829041,0.047363,-0.101746,-0.547791,0.254175,-0.255004,-1.972251,0.097195,-0.247113,-11.783485,171.169540,33.975598,-11.837799,0.296875,0.278750,
255780716,171.381377,171.381377,34.330812,3,-0.838257,0.049194,-0.101013,-0.533569,0.461277,0.158284,-2.471381,-0.251471,0.005521,-12.303681,171.576697,33.866491,-12.143356,0.328125,0.308750,
255789931,171.470702,171.470702,34.326283,3,-0.847290,0.050964,-0.100220,-0.519104,0.201466,-0.191352,-1.784346,0.046527,-0.252364,-11.584626,171.868462,33.747741,-11.776903,0.312500,0.312500,
255799591,172.637908,172.637908,34.330812,3,-0.856079,0.052734,-0.099304,-0.504456,0.567957,0.285872,-2.494617,-0.283098,0.145501,-12.351560,172.337852,33.715746,-12.153799,0.362500,0.342500,
255810660,172.218505,172.218505,34.330812,3,-0.864685,0.054443,-0.098267,-0.489624,0.467140,-0.310855,-1.777815,0.280809,-0.108587,-11.633540,172.688015,33.573249,-11.812578,0.390625,0.375500,
255820145,172.337798,172.337798,34.335342,3,-0.872864,0.056091,-0.097107,-0.474854,-0.052879,0.425378,-2.552610,-0.678469,-0.303089,-12.274820,172.940291,33.416266,-12.115750,0.345625,0.348500,
255829895,173.266478,173.266478,34.330812,3,-0.880798,0.057678,-0.095886,-0.460083,0.304145,0.353450,-2.165238,-0.374204,0.027560,-11.987309,173.326594,33.336569,-12.031508,0.375000,0.375000,
255840633,173.385253,173.385253,34.335342,3,-0.888428,0.059204,-0.094543,-0.445190,0.016314,0.184022,-2.278027,-0.397973,-0.315554,-12.031805,173.694852,33.214025,-12.031702,0.390625,0.390625,
255850104,173.894042,173.894042,34.330812,3,-0.895813,0.060669,-0.093140,-0.430298,0.301762,0.024898,-2.271688,-0.099940,-0.189849,-12.082960,174.046179,33.122495,-12.065320,0.406250,0.406250,
255860911,173.803649,173.803649,34.335342,3,-0.902893,0.062012,-0.091736,-0.415344,-0.095753,-0.172183,-1.863561,-0.147540,-0.539429,-11.589397,174.358054,32.969491,-11.753178,0.375000,0.375000,
255870264,174.522704,174.522704,34.330812,3,-0.909668,0.063232,-0.090271,-0.400452,0.125784,0.280906,-2.797421,-0.439285,-0.255041,-12.565005,174.696668,32.870681,-12.285629,0.406250,0.402000,
255880027,174.522704,174.522704,34.330812,3,-0.916260,0.064392,-0.088806,-0.385315,-0.071811,-0.136189,-2.020525,-0.177564,-0.527016,-11.755093,174.984484,32.736106,-11.937668,0.375000,0.375000,
255891132,174.641509,174.641509,34.335342,3,-0.922546,0.065369,-0.087280,-0.370117,-0.266612,0.070864,-2.528165,-0.519397,-0.605002,-12.218151,175.283021,32.561679,-12.121629,0.328125,0.342000,
255900592,175.569854,175.569854,34.330812,3,-0.928589,0.066345,-0.085754,-0.354919,0.095638,0.058982,-2.555572,-0.257139,-0.367158,-12.318768,175.644227,32.478275,-12.250925,0.359375,0.359375,
255910188,175.270201,175.270201,34.335342,3,-0.934326,0.067261,-0.084290,-0.339783,0.095768,-0.202160,-2.293720,-0.054197,-0.514412,-12.043665,175.885324,32.319975,-12.114991,0.312500,0.329375,
255921221,175.151396,175.151396,34.330812,3,-0.939819,0.068115,-0.082764,-0.324463,-0.382724,0.254333,-2.746176,-0.762087,-0.541841,-12.428441,176.103693,32.099791,-12.320576,0.262500,0.299375,
255930646,176.288512,176.288512,34.326283,3,-0.945068,0.068970,-0.081299,-0.309021,-0.031009,-0.402914,-2.005181,-0.007652,-0.708740,-11.722824,176.440361,32.010909,-11.928528,0.234375,0.269375,
255941505,175.988829,175.988829,34.330812,3,-0.950073,0.069824,-0.079956,-0.293396,-0.498821,0.325233,-2.689149,-0.890075,-0.490160,-12.360930,176.702635,31.825317,-12.212129,0.184375,0.239375,
255950675,176.617095,176.617095,34.330812,3,-0.954834,0.070679,-0.078613,-0.277649,-0.310916,-0.170864,-1.841223,-0.372879,-0.640113,-11.523079,176.977999,31.710050,-11.760203,0.156250,0.209375,
255960403,176.946227,176.946227,34.335342,3,-0.959412,0.071533,-0.077332,-0.261597,-0.341500,-0.366106,-2.183580,-0.341245,-0.875349,-11.832770,177.279964,31.591330,-11.807798,0.156250,0.179375,
255971378,177.274840,177.274840,34.339871,3,-0.963623,0.072388,-0.076233,-0.245605,-0.327810,0.472337,-2.263716,-0.771995,-0.145175,-11.997198,177.624990,31.459166,-11.932019,0.140625,0.149375,
255980850,177.575072,177.575072,34.335342,3,-0.967590,0.073242,-0.075073,-0.229675,-0.439578,-0.531383,-1.625656,-0.330886,-0.950082,-11.258991,177.913148,31.347003,-11.490601,0.140625,0.140625,
255990410,177.874266,177.874266,34.330812,3,-0.971252,0.074158,-0.074097,-0.213623,-0.258838,-0.142161,-2.324457,-0.433630,-0.643326,-12.016845,178.204976,31.227642,-11.835748,0.125000,0.125000,
256001423,178.112975,178.112975,34.339871,3,-0.974731,0.075012,-0.073181,-0.197449,-0.121226,-0.040693,-1.732688,-0.298572,-0.389756,-11.472705,178.530979,31.090721,-11.597640,0.109375,0.109375,
256010689,178.413237,178.413237,34.335342,3,-0.977844,0.075928,-0.072327,-0.181213,0.028605,-0.174750,-1.958441,-0.135871,-0.504238,-11.702235,178.796508,30.968661,-11.666241,0.093750,0.093750,
256021698,179.012206,179.012206,34.326283,3,-0.980652,0.076904,-0.071594,-0.165039,-0.055962,0.109053,-2.103769,-0.333907,-0.291498,-11.866492,179.177113,30.862601,-11.797579,0.109375,0.109375,
256030859,179.550719,179.550719,34.330812,3,-0.983215,0.077881,-0.070862,-0.148926,0.011739,-0.635893,-1.354688,0.045786,-0.836857,-11.038944,179.529393,30.805066,-11.300012,0.159375,0.139375,
256040596,180.089781,180.089781,34.335342,3,-0.985474,0.078918,-0.070251,-0.132935,0.024583,0.030774,-2.053159,-0.228077,-0.323897,-11.813693,179.933639,30.753716,-11.636917,0.209375,0.169375,
256051349,179.550719,179.550719,34.330812,3,-0.987427,0.079956,-0.069580,-0.117126,-0.126406,-0.447552,-1.355298,-0.172371,-0.700952,-11.040790,180.192030,30.591464,-11.245938,0.203125,0.199375,
256060862,180.898162,180.898162,34.326283,3,-0.989136,0.081055,-0.068909,-0.101379,0.266215,0.126529,-2.151733,-0.032588,-0.208394,-11.962276,180.614695,30.558549,-11.715759,0.253125,0.229375,
256070577,179.580168,179.580168,34.339871,3,-0.990601,0.082214,-0.068176,-0.085693,-0.071086,-0.364454,-1.163236,-0.146016,-0.571105,-10.873977,180.717477,30.335369,-11.163664,0.203125,0.203125,
256081657,180.508422,180.508422,34.335342,3,-0.991760,0.083374,-0.067444,-0.070190,0.070475,0.094340,-1.851942,-0.176202,-0.232045,-11.637530,181.013713,30.183001,-11.474459,0.153125,0.173125,
256090940,181.346831,181.346831,34.335342,3,-0.992676,0.084534,-0.066650,-0.054871,-0.266819,-0.072383,-1.401421,-0.433442,-0.345653,-11.115160,181.355829,30.118465,-11.238804,0.156250,0.156250,
256101961,181.556700,181.556700,34.335342,3,-0.993347,0.085815,-0.065857,-0.039795,0.124786,-0.378156,-1.751470,-0.068725,-0.670659,-11.463380,181.724684,30.015066,-11.386096,0.187500,0.187500,
256111377,182.394683,182.394683,34.335342,3,-0.993774,0.087036,-0.065002,-0.024963,0.087299,0.132102,-1.929820,-0.171102,-0.210806,-11.717868,182.132289,29.982241,-11.603692,0.232500,0.214500,
256121013,181.856017,181.856017,34.330812,3,-0.993958,0.088318,-0.064148,-0.010071,-0.048129,-0.339002,-1.350201,-0.214142,-0.581331,-11.053856,182.368987,29.844187,-11.243073,0.250000,0.244500,
256131919,182.694518,182.694518,34.330812,3,-0.993958,0.089661,-0.063171,0.004822,-0.052552,-0.007675,-2.017024,-0.310070,-0.368371,-11.765455,182.754709,29.753019,-11.585686,0.296875,0.277500,
256141346,182.994902,182.994902,34.326283,3,-0.993713,0.091003,-0.062195,0.019897,-0.021054,-0.000132,-1.668867,-0.238972,-0.302726,-11.422017,183.079679,29.673127,-11.478340,0.341875,0.304500,
256152025,182.814482,182.814482,34.335342,3,-0.993225,0.092346,-0.061157,0.034912,-0.082932,-0.372058,-1.510716,-0.304313,-0.627858,-11.193936,183.346262,29.523287,-11.291809,0.296875,0.296875,
256161441,182.723448,182.723448,34.339871,3,-0.992554,0.093689,-0.060059,0.049866,0.016475,0.352592,-2.254477,-0.249836,-0.064003,-12.069818,183.507037,29.337552,-11.802083,0.246875,0.266875,
256171074,183.981902,183.981902,34.339871,3,-0.991638,0.095093,-0.058960,0.064636,-0.305735,-0.749447,-1.179832,-0.547613,-0.903593,-10.775354,183.878067,29.287840,-11.128681,0.265625,0.265625,
256182085,183.563109,183.563109,34.339871,3,-0.990479,0.096497,-0.057861,0.078979,-0.253469,0.208128,-2.128221,-0.498775,-0.145026,-11.888013,184.140829,29.121683,-11.626705,0.210625,0.232625,
256191545,184.491729,184.491729,34.335342,3,-0.989197,0.097839,-0.056824,0.093018,-0.244342,-0.219277,-1.334507,-0.454247,-0.407829,-11.033000,184.481576,29.058005,-11.237311,0.260625,0.260625,
256201268,185.119963,185.119963,34.335342,3,-0.987732,0.099182,-0.055786,0.106995,-0.156611,-0.434446,-1.663309,-0.461534,-0.694219,-11.318044,184.883065,29.020688,-11.290259,0.305625,0.287625,
256212113,185.300994,185.300994,34.326283,3,-0.986023,0.100464,-0.054810,0.121094,-0.277649,-0.079335,-1.719117,-0.514271,-0.324580,-11.430432,185.275375,28.944147,-11.382193,0.360625,0.320625,
256221455,184.701140,184.701140,34.335342,3,-0.984131,0.101807,-0.053833,0.135193,-0.225840,-0.507460,-1.399698,-0.542432,-0.679563,-11.033712,185.437771,28.775041,-11.153638,0.359375,0.350625,
256232277,185.749327,185.749327,34.335342,3,-0.981934,0.103088,-0.052979,0.149414,-0.103983,0.189196,-2.064011,-0.331213,-0.174294,-11.845043,185.806799,28.682504,-11.607108,0.409375,0.380625,
256241474,186.049803,186.049803,34.330812,3,-0.979614,0.104370,-0.052063,0.163574,-0.143745,-0.317180,-1.273727,-0.411419,-0.482942,-10.955250,186.115665,28.610057,-11.179573,0.459375,0.410625,
256251116,185.630400,185.630400,34.330812,3,-0.977051,0.105652,-0.051270,0.177673,-0.231977,0.050691,-2.091308,-0.491382,-0.264544,-11.830122,186.300143,28.440976,-11.606250,0.414375,0.414375,
256262178,185.868773,185.868773,34.339871,3,-0.974304,0.106995,-0.050476,0.191589,-0.435780,-0.221742,-1.479929,-0.691778,-0.315392,-11.166417,186.533331,28.268605,-11.317779,0.359375,0.381375,
256271660,186.498168,186.498168,34.339871,3,-0.971436,0.108398,-0.049805,0.205200,-0.136554,-0.345059,-1.640820,-0.493564,-0.566633,-11.305125,186.794281,28.157364,-11.309480,0.309375,0.351375,
256281392,187.517577,187.517577,34.330812,3,-0.968384,0.109802,-0.049194,0.218628,-0.167134,0.232663,-1.896735,-0.331527,-0.088815,-11.690763,187.203123,28.125920,-11.559549,0.354375,0.354375,
256292173,187.427062,187.427062,34.335342,3,-0.965149,0.111206,-0.048584,0.231873,-0.302136,-0.601257,-1.632367,-0.773110,-0.698813,-11.226399,187.547641,28.030142,-11.341045,0.409375,0.387375,
256301596,187.817046,187.817046,34.326283,3,-0.961731,0.112610,-0.048035,0.245117,0.008012,0.131910,-1.952383,-0.226429,-0.269605,-11.728494,187.861679,27.950486,-11.595159,0.459375,0.417375,
256312359,187.846007,187.846007,34.335342,3,-0.958130,0.114014,-0.047485,0.258362,-0.166570,-0.388524,-1.375204,-0.542250,-0.507898,-11.031987,188.158959,27.829773,-11.225792,0.509375,0.447375,
256321688,187.966521,187.966521,34.339871,3,-0.954224,0.115417,-0.046936,0.271851,-0.075575,0.317244,-2.080027,-0.222224,-0.101397,-11.895755,188.381997,27.696368,-11.665201,0.468750,0.468750,
256331436,188.266021,188.266021,34.335342,3,-0.950134,0.116882,-0.046387,0.285461,-0.094628,-0.204761,-1.547073,-0.430368,-0.421181,-11.243655,188.629759,27.573583,-11.388723,0.453125,0.453125,
256342541,188.684996,188.684996,34.335342,3,-0.945801,0.118286,-0.045898,0.299011,0.032307,0.055552,-1.824381,-0.238240,-0.330790,-11.584932,188.945585,27.451274,-11.517410,0.453125,0.453125,
256351992,188.776061,188.776061,34.330812,3,-0.941345,0.119690,-0.045471,0.312195,-0.164037,-0.003184,-1.832453,-0.436314,-0.266578,-11.569304,189.172753,27.322317,-11.551447,0.421875,0.423125,
256361689,189.195067,189.195067,34.330812,3,-0.936768,0.121155,-0.045044,0.325134,0.026138,-0.470860,-1.489309,-0.508662,-0.665681,-11.116120,189.441371,27.217092,-11.265929,0.421875,0.421875,
256372507,190.034178,190.034178,34.330812,3,-0.932190,0.122681,-0.044678,0.337646,0.390551,0.351874,-2.221760,0.140006,-0.433537,-12.039425,189.846078,27.154378,-11.773239,0.471875,0.451875,
256381878,189.405120,189.405120,34.330812,3,-0.927429,0.124146,-0.044189,0.350098,0.115422,-0.523709,-1.180137,-0.440400,-0.696361,-10.802142,190.017533,27.002694,-11.136329,0.453125,0.453125,
256392850,189.943633,189.943633,34.335342,3,-0.922424,0.125671,-0.043762,0.362488,0.139129,-0.084332,-1.873339,-0.275655,-0.531613,-11.579682,190.299250,26.867433,-11.427111,0.437500,0.437500,
256402267,190.663817,190.663817,34.330812,3,-0.917236,0.127197,-0.043274,0.375000,0.085610,0.024777,-1.416848,-0.168617,-0.336351,-11.173200,190.620071,26.804505,-11.260577,0.482500,0.464500,
256411910,190.783324,190.783324,34.335342,3,-0.911865,0.128723,-0.042664,0.387451,0.253082,-0.114203,-1.414136,-0.154123,-0.549729,-11.125073,190.908596,26.715867,-11.171703,0.532500,0.494500,
256422851,191.382476,191.382476,34.326283,3,-0.906372,0.130249,-0.041992,0.399719,0.159291,0.302415,-1.814549,-0.001886,-0.293690,-11.619976,191.288922,26.642639,-11.465709,0.587500,0.527500,
256432341,191.082915,191.082915,34.330812,3,-0.900757,0.131775,-0.041260,0.411743,0.335784,-0.121729,-1.292509,-0.101563,-0.596018,-11.002233,191.502701,26.514612,-11.161731,0.625000,0.554500,
256441955,191.532012,191.532012,34.339871,3,-0.895020,0.133301,-0.040405,0.423645,0.397234,0.494900,-2.010231,0.252900,-0.425275,-11.849944,191.762522,26.403979,-11.613108,0.625000,0.584500,
256452984,191.742095,191.742095,34.339871,3,-0.889160,0.134827,-0.039490,0.435547,0.207209,0.258274,-1.566082,0.028530,-0.338961,-11.360304,192.049226,26.276256,-11.447302,0.625000,0.617500,
256462255,191.593108,191.593108,34.326283,3,-0.883118,0.136292,-0.038452,0.447266,0.183934,0.444295,-1.651983,0.142628,-0.249527,-11.498764,192.206911,26.116951,-11.481056,0.575000,0.587500,
256473235,192.042754,192.042754,34.335342,3,-0.877075,0.137695,-0.037354,0.458679,0.147338,0.661404,-2.124207,0.204015,-0.208376,-12.009051,192.462183,25.966668,-11.827352,0.525000,0.557500,
256482389,192.790984,192.790984,34.339871,3,-0.870972,0.139038,-0.036194,0.469849,0.251768,0.093059,-1.429429,-0.066730,-0.464409,-11.181420,192.761028,25.902674,-11.403704,0.531250,0.531250,
256492135,192.491362,192.491362,34.344401,3,-0.864746,0.140381,-0.034912,0.480896,0.025634,0.130546,-2.011274,-0.269988,-0.377749,-11.761718,192.962432,25.757427,-11.638515,0.486250,0.504250,
256502911,192.971099,192.971099,34.330812,3,-0.858459,0.141602,-0.033508,0.491760,-0.050822,-0.013708,-1.392671,-0.316848,-0.260353,-11.137211,193.240991,25.638205,-11.309725,0.453125,0.471250,
256512410,193.271239,193.271239,34.326283,3,-0.851990,0.142700,-0.032043,0.502686,0.077270,-0.020216,-1.665917,-0.307407,-0.427458,-11.381758,193.489675,25.533543,-11.356969,0.468750,0.468750,
256522164,194.110686,194.110686,34.326283,3,-0.845276,0.143677,-0.030457,0.513733,-0.234527,-0.212976,-1.046595,-0.507435,-0.112951,-10.766115,193.854471,25.499111,-10.969444,0.518750,0.498750,
256533246,193.510863,193.510863,34.335342,3,-0.838379,0.144531,-0.028748,0.524780,0.083894,0.357841,-2.004247,-0.051038,-0.359168,-11.810793,194.071947,25.329721,-11.521260,0.531250,0.528750,
256542573,194.230773,194.230773,34.330812,3,-0.831177,0.145264,-0.026855,0.536011,0.233135,0.202782,-1.388004,0.005090,-0.433788,-11.153557,194.337478,25.244210,-11.280094,0.578125,0.558750,
256553462,194.559935,194.559935,34.335342,3,-0.823730,0.145874,-0.024963,0.547302,0.127655,-0.207849,-1.648496,-0.467752,-0.544138,-11.303821,194.653359,25.146454,-11.295655,0.628125,0.588750,
256562756,194.140715,194.140715,34.335342,3,-0.816284,0.146423,-0.023010,0.558350,0.053787,0.344048,-1.737979,-0.020401,-0.310965,-11.544814,194.790536,24.979743,-11.459073,0.578125,0.578125,
256572506,194.860137,194.860137,34.330812,3,-0.808777,0.146912,-0.021057,0.569031,0.031229,-0.140569,-1.303436,-0.382121,-0.356762,-11.005084,195.046612,24.880360,-11.161315,0.528125,0.548125,
256583338,194.980223,194.980223,34.335342,3,-0.801392,0.147217,-0.019043,0.579407,0.037722,0.059028,-1.665533,-0.266419,-0.377207,-11.403837,195.303006,24.749402,-11.320378,0.484375,0.518125,
256592780,195.880400,195.880400,34.321754,3,-0.794006,0.147461,-0.017029,0.589478,0.032225,0.303244,-1.799093,-0.068614,-0.345205,-11.592253,195.644293,24.706358,-11.498690,0.534375,0.534375,
256602362,195.399474,195.399474,34.335342,3,-0.786621,0.147705,-0.015076,0.599304,0.088914,-0.389312,-1.366405,-0.618496,-0.473632,-10.995499,195.834727,24.573184,-11.168663,0.584375,0.564375,
256613484,195.399474,195.399474,34.335342,3,-0.779297,0.147888,-0.013062,0.608826,0.074572,0.196067,-1.720705,-0.143810,-0.404613,-11.481184,196.025809,24.396512,-11.373637,0.534375,0.534375,
256622862,196.239104,196.239104,34.335342,3,-0.771790,0.148071,-0.010986,0.618286,-0.034156,-0.250754,-0.931487,-0.434312,-0.224455,-10.635268,196.294116,24.321706,-10.889363,0.531250,0.531250,
256633719,196.539366,196.539366,34.330812,3,-0.763977,0.148254,-0.008911,0.627869,0.106588,0.250725,-1.926536,-0.122598,-0.476774,-11.684862,196.603391,24.223052,-11.411105,0.581250,0.561250,
256642972,196.839110,196.839110,34.326283,3,-0.756104,0.148315,-0.006775,0.637390,-0.042244,-0.156848,-1.157658,-0.391973,-0.234560,-10.878550,196.871236,24.149871,-11.061818,0.631250,0.591250,
256652713,197.048766,197.048766,34.326283,3,-0.748108,0.148376,-0.004639,0.646790,-0.012411,-0.054042,-1.421970,-0.341087,-0.305391,-11.149589,197.139176,24.061453,-11.119383,0.681250,0.621250,
256663591,197.498656,197.498656,34.335342,3,-0.739990,0.148376,-0.002502,0.656067,0.004483,0.181961,-1.475647,-0.119642,-0.308618,-11.250682,197.467556,23.979813,-11.205496,0.731250,0.651250,
256672949,197.468627,197.468627,34.326283,3,-0.731873,0.148315,-0.000366,0.665100,0.118321,-0.363292,-1.077381,-0.554696,-0.382852,-10.726638,197.691712,23.879738,-10.891428,0.781250,0.681250,
256682656,197.078795,197.078795,34.335342,3,-0.723816,0.148254,0.001709,0.673828,0.296339,0.361115,-1.818435,0.019973,-0.668465,-11.555379,197.808234,23.697961,-11.326895,0.731250,0.711250,
256693782,197.678832,197.678832,34.326283,3,-0.715820,0.148132,0.003784,0.682373,0.037660,-0.136441,-1.114804,-0.357537,-0.286773,-10.827658,198.047017,23.562625,-10.999462,0.676250,0.678250,
256703240,198.008635,198.008635,34.330812,3,-0.707764,0.147949,0.005798,0.690735,-0.064290,0.175842,-1.765590,-0.180790,-0.324098,-11.535420,198.262141,23.448874,-11.350980,0.631250,0.651250,
256714115,197.918547,197.918547,34.335342,3,-0.699768,0.147766,0.007812,0.698853,0.006110,0.093817,-1.437891,-0.188753,-0.321926,-11.190946,198.452127,23.287922,-11.246021,0.576250,0.618250,
256723371,198.458586,198.458586,34.339871,3,-0.691772,0.147522,0.009766,0.706848,0.138329,-0.260455,-1.342032,-0.521481,-0.421666,-10.999290,198.668430,23.186968,-11.084198,0.531250,0.591250,
256733042,198.848479,198.848479,34.330812,3,-0.683777,0.147278,0.011719,0.714600,0.289651,0.109078,-2.042283,-0.295565,-0.734052,-11.705700,198.925800,23.094269,-11.491821,0.531250,0.561250,
256743735,198.338439,198.338439,34.335342,3,-0.675598,0.147034,0.013672,0.722290,0.101922,-0.539518,-1.002545,-0.730810,-0.272956,-10.635009,199.062204,22.913755,-10.929867,0.476250,0.528250,
256753075,198.638243,198.638243,34.330812,3,-0.667236,0.146790,0.015686,0.730042,0.149036,0.107547,-2.136373,-0.322907,-0.627828,-11.821828,199.196286,22.754374,-11.514878,0.431250,0.501250,
256762876,199.178313,199.178313,34.335342,3,-0.658752,0.146484,0.017700,0.737732,0.004229,-0.172188,-0.948251,-0.356811,-0.194229,-10.671557,199.415461,22.647709,-10.961770,0.381250,0.471250,
256773999,199.388030,199.388030,34.335342,3,-0.650146,0.146240,0.019653,0.745361,-0.044354,0.304790,-1.742233,-0.039448,-0.391420,-11.520398,199.661499,22.516735,-11.328157,0.326250,0.438250,
256783468,199.268401,199.268401,34.330812,3,-0.641296,0.145996,0.021729,0.752991,0.014324,0.069360,-1.200270,-0.169533,-0.296063,-10.949715,199.800608,22.367818,-11.079950,0.276250,0.408250,
256794347,199.478118,199.478118,34.330812,3,-0.632385,0.145752,0.023743,0.760437,0.230085,0.091816,-1.489674,-0.236046,-0.571637,-11.175849,199.982870,22.209496,-11.142849,0.226250,0.378250,
256803589,200.408171,200.408171,34.326283,3,-0.623413,0.145447,0.025757,0.767822,0.146407,0.306821,-1.616666,-0.039287,-0.567096,-11.349116,200.267303,22.153782,-11.278131,0.176250,0.348250,
256813160,200.887725,200.887725,34.344401,3,-0.614441,0.145142,0.027771,0.775024,0.328735,-0.361322,-0.951138,-0.600400,-0.430371,-10.573037,200.595002,22.123251,-10.815679,0.171875,0.321250,
256823902,201.158080,201.158080,34.330812,3,-0.605347,0.144836,0.029846,0.782104,0.147105,0.079344,-1.621663,-0.267711,-0.522672,-11.319720,200.937388,22.065456,-11.146262,0.226875,0.288250,
256833313,200.858214,200.858214,34.335342,3,-0.596191,0.144470,0.031921,0.789124,0.066117,-0.021843,-0.843681,-0.203063,-0.248622,-10.583089,201.129780,21.956958,-10.776895,0.276875,0.276875,
256843180,201.367858,201.367858,34.330812,3,-0.586914,0.144104,0.033997,0.796021,-0.280223,-0.008852,-1.212162,-0.169009,-0.005893,-11.032509,201.390436,21.875084,-10.944543,0.326875,0.306875,
256854278,202.417723,202.417723,34.330812,3,-0.577576,0.143738,0.036072,0.802795,-0.144722,-0.324950,-0.728798,-0.399901,0.076591,-10.501577,201.824949,21.874548,-10.654011,0.376875,0.336875,
256863708,202.328124,202.328124,34.335342,3,-0.568115,0.143311,0.038147,0.809448,0.146879,-0.060343,-0.782275,-0.250199,-0.286621,-10.502681,202.125017,21.833719,-10.554756,0.426875,0.366875,
256874429,201.908049,201.908049,34.335342,3,-0.558594,0.142944,0.040283,0.816040,0.135428,0.243081,-1.370664,-0.082589,-0.528366,-11.095435,202.317795,21.690188,-10.909371,0.476875,0.396875,
256883899,203.257903,203.257903,34.330812,3,-0.549255,0.142578,0.042358,0.822327,-0.098335,-0.201608,-0.506421,-0.248735,0.048793,-10.296264,202.698863,21.701470,-10.507249,0.526875,0.426875,
256893467,202.507842,202.507842,34.326283,3,-0.540161,0.142212,0.044434,0.828247,-0.154789,0.409054,-1.515777,0.140400,-0.375195,-11.329876,202.870193,21.571215,-11.046785,0.576875,0.456875,
256904487,202.838347,202.838347,34.330812,3,-0.531189,0.141846,0.046448,0.833984,-0.015808,0.174468,-0.921468,-0.016598,-0.269643,-10.693286,203.101310,21.449604,-10.814936,0.626875,0.486875,
256913691,203.348052,203.348052,34.326283,3,-0.522522,0.141479,0.048401,0.839417,0.056736,0.051414,-1.109999,-0.188565,-0.327734,-10.844611,203.344479,21.378250,-10.834398,0.676875,0.516875,
256923498,202.748198,202.748198,34.335342,3,-0.513916,0.141052,0.050354,0.844666,-0.286942,0.412955,-1.361668,0.227076,-0.259551,-11.207094,203.441989,21.200728,-11.078840,0.726875,0.546875,
256934385,203.378081,203.378081,34.335342,3,-0.505432,0.140503,0.052307,0.849731,0.091959,-0.602607,-0.726759,-0.702942,0.047636,-10.436240,203.660243,21.079627,-10.657379,0.776875,0.576875,
256943872,203.888365,203.888365,34.330812,3,-0.496948,0.140015,0.054260,0.854675,0.191649,-0.412903,-1.521964,-0.735165,-0.307737,-11.178409,203.902420,20.999658,-10.999105,0.826875,0.606875,
256954726,204.098174,204.098174,34.330812,3,-0.488464,0.139404,0.056213,0.859558,0.117188,-0.430621,-0.543684,-0.535664,-0.002974,-10.268002,204.166441,20.910223,-10.519597,0.876875,0.636875,
256964045,203.768706,203.768706,34.326283,3,-0.479919,0.138855,0.058105,0.864319,-0.047139,-0.219449,-1.307882,-0.404538,-0.149465,-11.059549,204.286301,20.760969,-10.873736,0.926875,0.666875,
256973703,204.008025,204.008025,34.335342,3,-0.471436,0.138184,0.059937,0.868958,-0.059421,-0.521860,-1.126662,-0.621918,0.066116,-10.881688,204.434218,20.624201,-10.878953,0.976875,0.696875,
256984837,204.218352,204.218352,34.335342,3,-0.463013,0.137512,0.061707,0.873474,0.312231,0.044294,-1.388773,-0.388464,-0.602381,-11.037480,204.622733,20.476974,-10.982927,1.000000,0.729875,
256994150,204.428710,204.428710,34.335342,3,-0.454529,0.136780,0.063477,0.877869,0.342823,-0.100157,-1.658517,-0.578288,-0.597606,-11.285315,204.776589,20.349304,-11.181255,1.000000,0.756875,
257003880,204.728667,204.728667,34.330812,3,-0.446045,0.136047,0.065186,0.882202,0.396469,-0.461306,-0.990653,-0.779694,-0.267213,-10.629484,204.965138,20.240428,-10.819366,1.000000,0.786875,
257014762,205.178893,205.178893,34.339871,3,-0.437561,0.135315,0.066895,0.886414,0.428006,0.075857,-1.730984,-0.502937,-0.784450,-11.319698,205.224730,20.141658,-11.147517,1.000000,0.819875,
257024211,204.728667,204.728667,34.330812,3,-0.428894,0.134644,0.068481,0.890625,0.341306,-0.484846,-1.171484,-0.795241,-0.236873,-10.814785,205.321677,19.982425,-10.929290,0.955000,0.846875,
257035013,205.869048,205.869048,34.326283,3,-0.420227,0.134033,0.070068,0.894714,0.207306,-0.326340,-1.628540,-0.673583,-0.340032,-11.292336,205.639374,19.922865,-11.167398,1.000000,0.879875,
257044468,206.199126,206.199126,34.330812,3,-0.411438,0.133423,0.071594,0.898743,0.181732,0.056400,-1.759736,-0.390248,-0.596194,-11.420664,205.932070,19.879441,-11.333505,1.000000,0.906875,
257053941,205.778899,205.778899,34.330812,3,-0.402710,0.132935,0.073120,0.902649,0.519858,-0.371735,-1.390790,-0.858647,-0.455734,-10.981919,206.091241,19.757982,-11.102911,1.000000,0.936875,
257065045,205.988738,205.988738,34.330812,3,-0.393860,0.132446,0.074585,0.906494,0.530473,-0.189312,-1.634186,-0.780581,-0.633258,-11.208883,206.290746,19.622004,-11.172415,1.000000,0.969875,
257074280,206.499144,206.499144,34.326283,3,-0.385010,0.132019,0.075989,0.910217,0.225997,-0.671094,-1.120105,-0.832090,0.034666,-10.829749,206.510537,19.546193,-10.947670,1.000000,0.996875,
257084047,206.499144,206.499144,34.326283,3,-0.376160,0.131653,0.077454,0.913879,0.258898,0.084960,-1.796088,-0.438254,-0.668326,-11.428657,206.698747,19.433291,-11.263134,1.000000,1.000000,
257094867,206.409484,206.409484,34.330812,3,-0.367126,0.131226,0.078857,0.917480,0.362625,-0.364919,-1.108632,-0.710834,-0.249339,-10.763070,206.854249,19.283943,-10.935159,1.000000,1.000000,
257104340,207.219420,207.219420,34.321754,3,-0.358093,0.130859,0.080322,0.920959,0.234157,-0.351510,-1.420027,-0.669596,-0.241264,-11.102356,207.104800,19.220684,-11.044816,1.000000,1.000000,
257115190,207.459899,207.459899,34.330812,3,-0.348938,0.130615,0.081726,0.924377,0.310777,-0.144925,-1.452469,-0.589042,-0.448243,-11.102384,207.379193,19.140587,-11.082572,1.000000,1.000000,
257124475,207.339659,207.339659,34.326283,3,-0.339722,0.130310,0.083191,0.927734,0.345862,-0.422462,-1.031188,-0.719726,-0.147393,-10.703715,207.549065,19.036795,-10.834092,1.000000,1.000000,
257134092,208.300505,208.300505,34.330812,3,-0.330383,0.130127,0.084595,0.931030,0.524117,0.113811,-1.786298,-0.653686,-0.835780,-11.337121,207.872226,19.013137,-11.164010,1.000000,1.000000,
257145230,207.489409,207.489409,34.339871,3,-0.320862,0.129883,0.086060,0.934204,0.168069,-0.343228,-1.055398,-0.534292,-0.095402,-10.785638,208.011661,18.849603,-10.915849,1.000000,1.000000,
257154691,207.790007,207.790007,34.335342,3,-0.311279,0.129761,0.087585,0.937317,0.151464,-0.125963,-1.517017,-0.481796,-0.367631,-11.205312,208.147965,18.717888,-11.105700,1.000000,1.000000,
257164435,208.210295,208.210295,34.335342,3,-0.301636,0.129700,0.089050,0.940369,0.165474,0.276655,-1.636497,-0.281407,-0.722713,-11.283970,208.341477,18.615036,-11.222622,1.000000,1.000000,
257175324,208.300505,208.300505,34.330812,3,-0.292053,0.129639,0.090576,0.943237,0.117332,-0.482844,-1.119700,-0.588072,0.049805,-10.873154,208.535873,18.491856,-10.993417,1.000000,1.000000,
257184662,208.300505,208.300505,34.330812,3,-0.282471,0.129639,0.092041,0.945984,0.366138,0.361554,-1.786282,-0.437730,-0.936948,-11.353920,208.663957,18.358535,-11.229860,1.000000,1.000000,
257195499,208.840544,208.840544,34.335342,3,-0.272949,0.129761,0.093506,0.948669,0.008190,-0.357931,-0.853099,-0.367273,0.077220,-10.645176,208.895381,18.263025,-10.846383,1.000000,1.000000,
257204768,209.441252,209.441252,34.326283,3,-0.263428,0.129883,0.095032,0.951172,0.238442,0.015136,-1.828070,-0.550090,-0.583162,-11.457882,209.166375,18.219606,-11.247444,1.000000,1.000000,
257214440,209.771453,209.771453,34.330812,3,-0.253906,0.130066,0.096497,0.953552,0.095203,-0.117712,-1.152051,-0.367742,-0.238444,-10.879991,209.455342,18.183120,-11.006441,1.000000,1.000000,
257225643,208.720275,208.720275,34.330812,3,-0.244446,0.130249,0.098022,0.955872,0.250152,-0.264730,-1.516675,-0.646002,-0.265460,-11.195093,209.520688,17.974760,-11.130175,1.000000,1.000000,
257235091,209.230834,209.230834,34.326283,3,-0.235046,0.130493,0.099487,0.958008,0.267763,0.179838,-1.526077,-0.448850,-0.659556,-11.138524,209.635719,17.835995,-11.135652,1.000000,1.000000,
257244662,209.771453,209.771453,34.330812,3,-0.225708,0.130737,0.100952,0.960083,0.193639,0.044224,-1.412690,-0.443493,-0.480001,-11.074507,209.831331,17.745500,-11.095548,1.000000,1.000000,
257255501,210.401763,210.401763,34.330812,3,-0.216248,0.131042,0.102417,0.962036,0.430966,0.216494,-1.628662,-0.621001,-0.780499,-11.180100,210.129822,17.688918,-11.151001,1.000000,1.000000,
257264831,210.071563,210.071563,34.326283,3,-0.206970,0.131287,0.103943,0.963928,0.304748,-0.274855,-1.068995,-0.610929,-0.141805,-10.757807,210.283501,17.581992,-10.893117,1.000000,1.000000,
257275767,210.071563,210.071563,34.326283,3,-0.197754,0.131531,0.105469,0.965637,0.098165,0.238175,-1.600023,-0.324485,-0.662540,-11.240737,210.435400,17.435172,-11.121111,1.000000,1.000000,
257285038,210.281493,210.281493,34.326283,3,-0.188538,0.131897,0.106934,0.967285,0.174722,-0.190311,-0.843652,-0.418445,-0.105956,-10.576416,210.567788,17.319578,-10.763863,1.000000,1.000000,
257294769,210.942443,210.942443,34.335342,3,-0.179443,0.132202,0.108398,0.968811,0.008015,0.025671,-1.389771,-0.300165,-0.388047,-11.103694,210.805905,17.254100,-10.986746,1.000000,1.000000,
257305875,211.332823,211.332823,34.326283,3,-0.170410,0.132629,0.109863,0.970215,0.184438,-0.157111,-1.130018,-0.469406,-0.209072,-10.835526,211.095538,17.193280,-10.887563,1.000000,1.000000,
257315338,211.332823,211.332823,34.326283,3,-0.161377,0.132996,0.111389,0.971497,-0.092993,-0.290133,-0.934386,-0.227045,0.049997,-10.754216,211.302211,17.118985,-10.800104,1.000000,1.000000,
257324888,211.062194,211.062194,34.339871,3,-0.152405,0.133423,0.112976,0.972717,0.280288,0.403127,-1.709035,-0.509649,-0.899055,-11.247731,211.420238,16.984139,-11.093689,1.000000,1.000000,
257335978,211.873015,211.873015,34.330812,3,-0.143494,0.133789,0.114624,0.973816,-0.009028,-0.267119,-0.772396,-0.255316,0.046511,-10.572823,211.692750,16.917836,-10.752067,1.000000,1.000000,
257345399,212.383696,212.383696,34.326283,3,-0.134705,0.134216,0.116272,0.974854,-0.079820,0.158729,-1.647565,-0.257526,-0.569835,-11.333184,211.981023,16.890656,-11.133200,1.000000,1.000000,
257356299,211.993315,211.993315,34.335342,3,-0.125916,0.134521,0.117981,0.975769,0.203019,-0.029033,-1.146372,-0.466037,-0.323258,-10.814994,212.166805,16.774054,-10.924499,1.000000,1.000000,
257365519,212.294005,212.294005,34.330812,3,-0.117126,0.134827,0.119629,0.976624,-0.024344,-0.138215,-1.206187,-0.301378,-0.185277,-10.958165,212.344821,16.687738,-10.946579,1.000000,1.000000,
257375155,212.294005,212.294005,34.330812,3,-0.108337,0.135132,0.121338,0.977356,0.130629,0.259820,-1.509221,-0.421721,-0.679040,-11.110982,212.495591,16.574889,-11.054406,1.000000,1.000000,
257385940,211.873015,211.873015,34.330812,3,-0.099609,0.135315,0.123047,0.978088,-0.088437,-0.227750,-0.794091,-0.163420,0.011570,-10.618274,212.557191,16.389820,-10.768363,1.000000,1.000000,
257395433,212.413787,212.413787,34.335342,3,-0.090820,0.135559,0.124817,0.978699,0.120611,0.101171,-1.532892,-0.467613,-0.530416,-11.175663,212.685405,16.267138,-11.035499,1.000000,1.000000,
257405120,212.083525,212.083525,34.330812,3,-0.082153,0.135742,0.126526,0.979187,0.008109,-0.110239,-0.827811,-0.232341,-0.120356,-10.598280,212.729865,16.096128,-10.748743,1.000000,1.000000,
257416248,212.923979,212.923979,34.330812,3,-0.073486,0.135864,0.128235,0.979675,-0.082287,-0.137381,-1.178433,-0.240521,-0.186750,-10.952776,212.944644,15.996274,-10.882561,1.000000,1.000000,
257425469,213.134490,213.134490,34.330812,3,-0.064880,0.135925,0.129944,0.979980,0.094627,0.070204,-1.147923,-0.371767,-0.393192,-10.823620,213.127243,15.918425,-10.843903,1.000000,1.000000,
257436440,213.765013,213.765013,34.330812,3,-0.056458,0.135986,0.131653,0.980286,-0.161474,0.050777,-1.177013,-0.133772,-0.358181,-10.928438,213.420672,15.870979,-10.899344,1.000000,1.000000,
257445692,214.095854,214.095854,34.335342,3,-0.048096,0.135986,0.133362,0.980530,-0.114069,0.390021,-1.475146,-0.212874,-0.777537,-11.103149,213.693488,15.846233,-11.033010,1.000000,1.000000,
257455444,213.765013,213.765013,34.330812,3,-0.039856,0.135925,0.135071,0.980652,-0.147849,-0.079214,-0.792863,-0.068200,-0.136330,-10.596009,213.860922,15.751023,-10.746394,1.000000,1.000000,
257466230,213.975554,213.975554,34.330812,3,-0.031677,0.135864,0.136841,0.980713,-0.192780,0.201913,-1.501838,-0.187336,-0.610826,-11.186263,214.051607,15.643507,-11.034890,1.000000,1.000000,
257475740,213.555022,213.555022,34.330812,3,-0.023560,0.135803,0.138550,0.980713,-0.046716,0.306041,-1.236799,-0.254398,-0.637486,-10.871783,214.106899,15.483072,-10.927916,1.000000,1.000000,
257485532,213.645232,213.645232,34.326283,3,-0.015564,0.135620,0.140320,0.980652,-0.028669,0.166212,-1.298732,-0.298984,-0.527155,-10.957804,214.171570,15.323271,-10.947520,1.000000,1.000000,
257496549,213.975554,213.975554,34.330812,3,-0.007629,0.135376,0.142029,0.980530,-0.299548,-0.002243,-0.915337,0.043290,-0.262308,-10.729270,214.303036,15.182764,-10.804377,1.000000,1.000000,
257505861,214.396117,214.396117,34.330812,3,0.000244,0.135071,0.143799,0.980347,-0.229086,-0.328401,-0.900282,-0.035468,0.047867,-10.783838,214.461385,15.093108,-10.790905,1.000000,1.000000,
257516733,214.816161,214.816161,34.330812,3,0.008118,0.134705,0.145569,0.980103,-0.204432,0.246749,-1.263374,-0.138490,-0.603184,-10.946883,214.691274,15.014514,-10.893205,1.000000,1.000000,
257526020,214.276335,214.276335,34.326283,3,0.015747,0.134338,0.147339,0.979797,-0.181249,-0.124850,-0.626527,0.001740,-0.071993,-10.458030,214.752565,14.869602,-10.607789,1.000000,1.000000,
257535749,214.696379,214.696379,34.326283,3,0.023376,0.133850,0.149109,0.979431,-0.225994,0.205945,-1.324487,-0.140505,-0.597202,-11.010093,214.886177,14.756100,-10.871648,1.000000,1.000000,
257546720,215.237273,215.237273,34.330812,3,0.031128,0.133240,0.150940,0.979004,-0.335702,0.297194,-0.791037,0.097119,-0.552571,-10.521634,215.113193,14.680258,-10.642083,1.000000,1.000000,
257556131,215.958190,215.958190,34.326283,3,0.038818,0.132568,0.152771,0.978577,-0.210596,-0.170651,-0.915985,-0.046479,-0.127380,-10.745842,215.409129,14.676561,-10.710131,1.000000,1.000000,
257565698,215.056792,215.056792,34.339871,3,0.046326,0.131836,0.154541,0.978027,-0.124589,0.286937,-1.220085,-0.233358,-0.643345,-10.855925,215.483093,14.532589,-10.805754,1.000000,1.000000,
257576872,215.988280,215.988280,34.335342,3,0.053589,0.131042,0.156311,0.977478,-0.208565,-0.169348,-0.856417,-0.030852,-0.123215,-10.691849,215.739415,14.470099,-10.731046,1.000000,1.000000,
257586148,216.288573,216.288573,34.330812,3,0.060669,0.130188,0.158142,0.976929,-0.081943,0.411449,-1.394272,-0.339977,-0.812218,-10.963075,215.976012,14.431750,-10.883224,1.000000,1.000000,
257597063,215.958190,215.958190,34.326283,3,0.067627,0.129272,0.159973,0.976257,-0.055851,-0.245666,-0.704158,-0.118901,0.011516,-10.536493,216.129583,14.314577,-10.655814,1.000000,1.000000,
257606333,216.288573,216.288573,34.330812,3,0.074524,0.128235,0.161865,0.975586,-0.382164,-0.133399,-1.049933,0.083774,-0.261197,-10.894670,216.291579,14.231866,-10.812471,1.000000,1.000000,
257616040,216.078521,216.078521,34.330812,3,0.081360,0.127197,0.163818,0.974854,0.084084,0.301271,-1.430620,-0.508906,-0.695579,-10.988458,216.389325,14.100969,-10.927896,1.000000,1.000000,
257626894,217.129882,217.129882,34.330812,3,0.088196,0.126038,0.165710,0.974121,-0.307496,-0.391060,-0.616937,0.174408,0.111111,-10.563993,216.680431,14.069949,-10.689221,1.000000,1.000000,
257636127,216.709227,216.709227,34.330812,3,0.094910,0.124756,0.167725,0.973267,-0.069702,0.066127,-1.361826,-0.324178,-0.488294,-11.028816,216.815245,13.971292,-10.911950,1.000000,1.000000,
257645805,216.799468,216.799468,34.326283,3,0.101746,0.123474,0.169678,0.972412,-0.160495,-0.262941,-0.609035,0.020298,0.018098,-10.483486,216.947033,13.868041,-10.630934,1.000000,1.000000,
257656960,216.829558,216.829558,34.335342,3,0.108643,0.122009,0.171753,0.971497,-0.130160,0.223902,-1.390164,-0.303245,-0.663721,-11.010477,217.079037,13.732181,-10.879865,1.000000,1.000000,
257666414,217.430236,217.430236,34.326283,3,0.115662,0.120483,0.173706,0.970520,-0.091721,-0.041572,-0.869387,-0.150196,-0.249754,-10.620254,217.274175,13.672376,-10.709593,1.000000,1.000000,
257677287,217.430236,217.430236,34.326283,3,0.122742,0.118835,0.175720,0.969482,-0.068490,-0.105133,-1.058307,-0.211112,-0.257231,-10.813702,217.451423,13.572606,-10.777874,1.000000,1.000000,
257686521,218.061553,218.061553,34.326283,3,0.129761,0.117188,0.177734,0.968445,-0.078125,0.493178,-1.273398,-0.379740,-0.868008,-10.784808,217.690573,13.543600,-10.782419,1.000000,1.000000,
257696233,217.339965,217.339965,34.330812,3,0.136658,0.115479,0.179688,0.967346,-0.052749,-0.372502,-0.627558,-0.048554,0.116092,-10.520901,217.756001,13.401547,-10.610899,1.000000,1.000000,
257707286,217.550566,217.550566,34.330812,3,0.143433,0.113647,0.181580,0.966187,-0.067197,0.355118,-1.256245,-0.363473,-0.736047,-10.815866,217.864989,13.258854,-10.745331,1.000000,1.000000,
257716524,217.640319,217.640319,34.326283,3,0.150085,0.111816,0.183472,0.965027,-0.042418,-0.094735,-0.581425,-0.100623,-0.115657,-10.375076,217.944972,13.137236,-10.502493,1.000000,1.000000,
257726329,218.301726,218.301726,34.335342,3,0.156677,0.109985,0.185364,0.963867,-0.044139,0.129319,-1.181141,-0.319737,-0.507152,-10.826935,218.140019,13.071601,-10.715283,1.000000,1.000000,
257737370,218.271636,218.271636,34.326283,3,0.163147,0.107971,0.187195,0.962646,-0.268666,-0.014915,-0.587471,0.092089,-0.281730,-10.380115,218.308371,12.971744,-10.495456,1.000000,1.000000,
257746858,218.301726,218.301726,34.335342,3,0.169556,0.106018,0.189026,0.961426,0.091604,-0.265902,-0.699516,-0.196503,0.032387,-10.526209,218.429727,12.871092,-10.515626,1.000000,1.000000,
257756351,218.271636,218.271636,34.326283,3,0.175842,0.103943,0.190857,0.960144,-0.214885,0.232896,-0.996429,-0.147206,-0.609901,-10.641056,218.521836,12.752024,-10.597893,1.000000,1.000000,
257767223,218.572020,218.572020,34.321754,3,0.182129,0.101868,0.192688,0.958801,0.064023,-0.218615,-0.352520,-0.092069,0.093489,-10.198129,218.669285,12.646646,-10.335700,1.000000,1.000000,
257776569,218.692382,218.692382,34.326283,3,0.188416,0.099670,0.194519,0.957458,0.156161,0.332902,-1.328320,-0.600497,-0.663195,-10.843608,218.791308,12.547768,-10.668821,1.000000,1.000000,
257787603,218.782653,218.782653,34.321754,3,0.194702,0.097473,0.196289,0.956055,-0.000466,-0.073338,-0.500212,-0.113782,-0.104530,-10.282857,218.927529,12.433149,-10.415679,1.000000,1.000000,
257796804,219.864409,219.864409,34.330812,3,0.200989,0.095215,0.198120,0.954590,0.076207,0.110695,-1.108019,-0.397558,-0.438130,-10.743384,219.216929,12.442474,-10.630607,1.000000,1.000000,
257806532,219.022856,219.022856,34.330812,3,0.207153,0.092957,0.199890,0.953125,0.150936,0.272855,-0.913541,-0.476320,-0.475704,-10.497056,219.301156,12.318309,-10.543016,1.000000,1.000000,
257817424,219.232970,219.232970,34.330812,3,0.213440,0.090637,0.201660,0.951599,0.158272,-0.128736,-0.743745,-0.291837,-0.076849,-10.509214,219.421938,12.196119,-10.520846,1.000000,1.000000,
257826933,218.842314,218.842314,34.339871,3,0.219604,0.088257,0.203430,0.950073,-0.024972,0.287503,-1.176988,-0.397091,-0.652514,-10.744626,219.428865,12.027167,-10.667619,1.000000,1.000000,
257836515,219.443633,219.443633,34.330812,3,0.225769,0.085876,0.205200,0.948425,-0.014526,-0.238153,-0.355663,0.006322,0.062407,-10.220694,219.546423,11.930951,-10.374495,1.000000,1.000000,
257847635,219.954680,219.954680,34.326283,3,0.231873,0.083496,0.206970,0.946777,0.117664,0.072316,-1.047966,-0.405861,-0.367688,-10.701036,219.754866,11.858228,-10.588661,1.000000,1.000000,
257856845,219.533904,219.533904,34.326283,3,0.237854,0.081116,0.208679,0.945129,0.014509,-0.096221,-0.638962,-0.136195,-0.147713,-10.416314,219.822265,11.736865,-10.475625,1.000000,1.000000,
257867834,220.495330,220.495330,34.330812,3,0.243835,0.078735,0.210449,0.943420,-0.039099,-0.181792,-0.494028,-0.011582,-0.050501,-10.325678,220.076681,11.699711,-10.377277,1.000000,1.000000,
257877066,219.954680,219.954680,34.326283,3,0.249695,0.076355,0.212158,0.941711,0.039982,0.211892,-1.007920,-0.378854,-0.508450,-10.608168,220.161379,11.587567,-10.528712,1.000000,1.000000,
257886809,221.307433,221.307433,34.321754,3,0.255615,0.073975,0.213867,0.939941,0.047018,-0.197036,-0.273339,-0.022077,0.076928,-10.133725,220.488312,11.619085,-10.269648,1.000000,1.000000,
257897590,220.164824,220.164824,34.326283,3,0.261475,0.071533,0.215576,0.938110,-0.044897,0.376576,-1.175710,-0.426011,-0.745461,-10.689847,220.552372,11.467389,-10.545244,1.000000,1.000000,
257907085,220.585631,220.585631,34.326283,3,0.267273,0.069153,0.217224,0.936279,0.095958,0.083735,-0.533064,-0.251492,-0.207711,-10.238619,220.667036,11.374091,-10.344138,1.000000,1.000000,
257916764,221.006469,221.006469,34.326283,3,0.273071,0.066772,0.218933,0.934387,0.124034,0.096225,-0.858899,-0.363993,-0.328976,-10.519547,220.840152,11.310841,-10.459182,1.000000,1.000000,
257927903,220.615721,220.615721,34.335342,3,0.278809,0.064331,0.220581,0.932434,0.118936,0.320877,-0.982966,-0.498897,-0.547655,-10.538960,220.923460,11.168123,-10.511507,1.000000,1.000000,
257937215,221.006469,221.006469,34.326283,3,0.284546,0.061829,0.222229,0.930481,0.062670,-0.219484,-0.392232,-0.034705,0.048101,-10.253224,221.042573,11.082355,-10.342106,1.000000,1.000000,
257948227,220.615721,220.615721,34.335342,3,0.290222,0.059387,0.223816,0.928528,0.168502,0.400282,-0.959680,-0.573357,-0.565634,-10.480255,221.084013,10.918440,-10.432715,1.000000,1.000000,
257957578,221.036559,221.036559,34.335342,3,0.295837,0.056885,0.225403,0.926514,0.212529,-0.139079,-0.305994,-0.172534,0.100753,-10.139422,221.176792,10.818249,-10.240353,1.000000,1.000000,
257967165,221.126860,221.126860,34.330812,3,0.301453,0.054382,0.226990,0.924500,0.197859,0.000151,-0.719711,-0.328759,-0.168622,-10.444392,221.270671,10.712407,-10.374176,1.000000,1.000000,
257978188,221.457396,221.457396,34.335342,3,0.307068,0.051880,0.228577,0.922363,0.048376,-0.087156,-0.221309,-0.039383,-0.002792,-10.033398,221.423125,10.622785,-10.150670,1.000000,1.000000,
257987599,221.547698,221.547698,34.330812,3,0.312622,0.049377,0.230103,0.920227,0.276288,0.059250,-0.715700,-0.417148,-0.167384,-10.427177,221.545954,10.538932,-10.332022,1.000000,1.000000,
257997182,221.337004,221.337004,34.330812,3,0.318115,0.046875,0.231628,0.918091,0.181879,0.240403,-0.586109,-0.417070,-0.290553,-10.226167,221.607375,10.417141,-10.262596,1.000000,1.000000,
258008271,221.547698,221.547698,34.330812,3,0.323547,0.044373,0.233154,0.915955,0.197920,-0.019630,-0.720145,-0.309457,-0.153105,-10.466477,221.711064,10.294435,-10.396316,1.000000,1.000000,
258017726,221.727751,221.727751,34.321754,3,0.328918,0.041931,0.234680,0.913757,0.284205,0.457957,-1.013883,-0.723549,-0.544123,-10.513429,221.811048,10.196912,-10.473126,1.000000,1.000000,
258028527,221.848174,221.848174,34.326283,3,0.334290,0.039551,0.236145,0.911560,0.141775,-0.159951,-0.368365,-0.099181,0.046060,-10.215404,221.927554,10.090721,-10.304094,1.000000,1.000000,
258037809,222.269042,222.269042,34.326283,3,0.339661,0.037170,0.237671,0.909302,0.248184,0.271900,-0.939941,-0.571731,-0.406510,-10.532466,222.084714,10.032353,-10.453874,1.000000,1.000000,
258047417,222.178740,222.178740,34.330812,3,0.344971,0.034851,0.239197,0.906982,0.197753,0.366744,-0.681888,-0.523140,-0.395228,-10.259333,222.198238,9.944483,-10.326280,1.000000,1.000000,
258058248,222.720031,222.720031,34.335342,3,0.350220,0.032532,0.240662,0.904602,0.225696,-0.014476,-0.481196,-0.265744,-0.045190,-10.251398,222.403037,9.892357,-10.277165,1.000000,1.000000,
258067622,222.899596,222.899596,34.326283,3,0.355530,0.030212,0.242188,0.902222,0.304474,0.478111,-0.992916,-0.750763,-0.517417,-10.487107,222.588273,9.851012,-10.414857,1.000000,1.000000,
258077363,222.479216,222.479216,34.326283,3,0.360779,0.027954,0.243713,0.899780,0.195923,-0.137063,-0.217319,-0.109923,0.119959,-10.075376,222.663360,9.740504,-10.192202,1.000000,1.000000,
258088509,223.230742,223.230742,34.330812,3,0.365967,0.025757,0.245239,0.897339,0.304222,0.339212,-1.015813,-0.664802,-0.435782,-10.578714,222.877495,9.686837,-10.445701,1.000000,1.000000,
258097951,222.689940,222.689940,34.326283,3,0.371033,0.023621,0.246765,0.894897,0.272325,0.029743,-0.260558,-0.276042,0.053154,-10.056975,222.933398,9.570382,-10.190749,1.000000,1.000000,
258107704,223.320525,223.320525,34.326283,3,0.376221,0.021423,0.248291,0.892395,0.262905,-0.105131,-0.551294,-0.238355,0.002943,-10.366555,223.098706,9.513396,-10.306053,1.000000,1.000000,
258118434,223.320525,223.320525,34.326283,3,0.381348,0.019287,0.249817,0.889832,0.336493,0.426530,-0.636134,-0.667046,-0.292502,-10.212713,223.241737,9.428944,-10.244833,1.000000,1.000000,
258127740,223.230742,223.230742,34.330812,3,0.386353,0.017212,0.251404,0.887268,0.262450,0.043223,-0.548035,-0.335929,-0.086171,-10.303782,223.326975,9.331770,-10.283496,1.000000,1.000000,
258138639,223.140959,223.140959,34.335342,3,0.391296,0.015198,0.252991,0.884705,0.343385,0.606564,-0.988737,-0.873194,-0.539510,-10.438242,223.393222,9.196986,-10.384990,1.000000,1.000000,
258147885,222.810363,222.810363,34.330812,3,0.396057,0.013245,0.254578,0.882141,0.312151,-0.029502,-0.250579,-0.249052,0.117702,-10.087168,223.368688,9.036630,-10.189660,1.000000,1.000000,
258157694,223.471587,223.471587,34.339871,3,0.400818,0.011292,0.256165,0.879578,0.171942,0.273664,-0.873152,-0.502530,-0.420283,-10.459717,223.476072,8.945719,-10.366782,1.000000,1.000000,
258168799,223.530730,223.530730,34.326283,3,0.405518,0.009399,0.257690,0.876953,0.170930,0.166773,-0.340324,-0.308333,-0.127038,-10.051015,223.585043,8.840137,-10.159680,1.000000,1.000000,
258178228,223.530730,223.530730,34.326283,3,0.410156,0.007568,0.259216,0.874329,0.158538,-0.102408,-0.445809,-0.131772,-0.035170,-10.260487,223.657762,8.737073,-10.225796,1.000000,1.000000,
258187899,223.861357,223.861357,34.330812,3,0.414856,0.005737,0.260742,0.871704,0.154855,0.542935,-0.768683,-0.667026,-0.519352,-10.248260,223.779889,8.661177,-10.240528,1.000000,1.000000,
258198740,223.951689,223.951689,34.326283,3,0.419739,0.003906,0.262268,0.868896,0.171061,-0.094369,-0.078473,-0.057892,0.137953,-9.946454,223.905383,8.572698,-10.047653,1.000000,1.000000,
258208067,224.493071,224.493071,34.330812,3,0.424683,0.002075,0.263855,0.866028,0.233153,0.423574,-0.788439,-0.644462,-0.404993,-10.336698,224.094930,8.543857,-10.237226,1.000000,1.000000,
258219117,224.583403,224.583403,34.326283,3,0.429565,0.000305,0.265442,0.863159,0.182211,-0.083640,-0.038205,-0.064546,0.157044,-9.912127,224.280237,8.489614,-10.024002,1.000000,1.000000,
258228502,223.861357,223.861357,34.330812,3,0.434448,-0.001404,0.267090,0.860229,0.245021,0.418517,-1.016106,-0.694667,-0.491160,-10.533019,224.280955,8.342067,-10.357852,1.000000,1.000000,
258238130,223.861357,223.861357,34.330812,3,0.439209,-0.003113,0.268738,0.857239,0.271901,0.168208,-0.257516,-0.350017,-0.000388,-10.013071,224.282277,8.197811,-10.131723,1.000000,1.000000,
258249078,224.072112,224.072112,34.330812,3,0.443970,-0.004822,0.270447,0.854248,0.252371,0.343957,-0.809356,-0.605533,-0.352432,-10.395770,224.332038,8.060313,-10.304904,1.000000,1.000000,
258258534,224.493071,224.493071,34.330812,3,0.448608,-0.006470,0.272156,0.851257,0.296793,0.555225,-0.634664,-0.754367,-0.325310,-10.162439,224.437969,7.982842,-10.211465,1.000000,1.000000,
258268122,224.372649,224.372649,34.326283,3,0.453186,-0.008057,0.273926,0.848267,0.170678,0.027874,-0.363222,-0.205742,-0.060454,-10.139289,224.501820,7.878192,-10.164127,1.000000,1.000000,
258279248,224.914061,224.914061,34.330812,3,0.457458,-0.009521,0.275757,0.845337,0.268831,0.500403,-0.884627,-0.757983,-0.431277,-10.393311,224.666016,7.809264,-10.314440,1.000000,1.000000,
258288523,225.004393,225.004393,34.326283,3,0.461487,-0.010925,0.277527,0.842529,0.198175,0.013030,-0.134636,-0.159227,0.079604,-9.961781,224.801411,7.756124,-10.083140,1.000000,1.000000,
258299423,224.673186,224.673186,34.321754,3,0.465393,-0.012268,0.279419,0.839783,0.111185,0.199751,-0.648916,-0.382019,-0.312458,-10.286488,224.861317,7.629508,-10.216510,1.000000,1.000000,
258308638,225.004393,225.004393,34.326283,3,0.469360,-0.013611,0.281250,0.836914,0.101721,0.305449,-0.339652,-0.380375,-0.209281,-9.979105,224.958008,7.554191,-10.060803,1.000000,1.000000,
258318342,225.424865,225.424865,34.326283,3,0.473267,-0.014893,0.283142,0.834045,0.129725,-0.095551,-0.139395,-0.031025,0.068134,-10.003346,225.118219,7.510148,-10.023117,1.000000,1.000000,
258329124,224.914061,224.914061,34.330812,3,0.476990,-0.016113,0.284973,0.831238,0.171032,0.570373,-0.866635,-0.760316,-0.513045,-10.309170,225.160361,7.376032,-10.210731,1.000000,1.000000,
258338608,225.094725,225.094725,34.321754,3,0.480591,-0.017212,0.286865,0.828491,0.116230,-0.002350,0.050516,-0.051778,0.113751,-9.789747,225.217604,7.275782,-9.934621,1.000000,1.000000,
258348307,224.914061,224.914061,34.330812,3,0.484131,-0.018311,0.288757,0.825745,0.147657,0.568044,-0.976519,-0.778547,-0.579231,-10.396672,225.230856,7.140470,-10.237667,1.000000,1.000000,
258359479,225.335051,225.335051,34.330812,3,0.487671,-0.019409,0.290710,0.822998,0.248964,0.354446,-0.333489,-0.505985,-0.099170,-9.993484,225.329527,7.040470,-10.077515,1.000000,1.000000,
258368626,225.094725,225.094725,34.321754,3,0.491272,-0.020569,0.292603,0.820129,0.219275,0.199417,-0.645193,-0.439376,-0.224124,-10.304846,225.349510,6.918955,-10.226615,1.000000,1.000000,
258378436,226.056670,226.056670,34.326283,3,0.494629,-0.021545,0.294617,0.817383,0.254937,0.613167,-0.704210,-0.814304,-0.359332,-10.181796,225.549242,6.899294,-10.197217,1.000000,1.000000,
258389250,225.335051,225.335051,34.330812,3,0.497864,-0.022522,0.296570,0.814636,0.173941,0.069608,-0.263073,-0.216665,-0.024062,-10.041497,225.583167,6.766419,-10.095086,1.000000,1.000000,
258398732,226.237365,226.237365,34.317224,3,0.501038,-0.023499,0.298584,0.811951,0.310106,0.521366,-0.823271,-0.797782,-0.341504,-10.335699,225.769356,6.743545,-10.252894,1.000000,1.000000,
258409595,225.635649,225.635649,34.326283,3,0.504089,-0.024475,0.300659,0.809265,0.111032,0.033952,-0.097535,-0.107514,0.028721,-9.906811,225.816999,6.620604,-10.025909,1.000000,1.000000,
258419024,225.756072,225.756072,34.330812,3,0.507080,-0.025330,0.302795,0.806580,0.243110,0.162402,-0.526249,-0.397494,-0.125512,-10.235961,225.867548,6.516976,-10.163676,1.000000,1.000000,
258428610,226.147002,226.147002,34.321754,3,0.509888,-0.026123,0.304932,0.803955,0.265849,0.372428,-0.411801,-0.551863,-0.106962,-10.050944,225.981870,6.452485,-10.089738,1.000000,1.000000,
258439745,225.966338,225.966338,34.330812,3,0.512451,-0.026794,0.307129,0.801453,0.186582,0.144324,-0.459218,-0.336656,-0.137645,-10.169299,226.050176,6.337534,-10.141919,1.000000,1.000000,
258449112,226.056670,226.056670,34.326283,3,0.514771,-0.027344,0.309448,0.799072,0.208518,0.284466,-0.376075,-0.440677,-0.109000,-10.047171,226.110320,6.244214,-10.079777,1.000000,1.000000,
258458839,226.176604,226.176604,34.330812,3,0.516968,-0.027832,0.311707,0.796753,0.093804,-0.093257,-0.041468,0.020118,0.075466,-9.907248,226.183004,6.155400,-9.966620,1.000000,1.000000,
258469938,225.665740,225.665740,34.335342,3,0.518982,-0.028198,0.314087,0.794495,0.211015,0.570686,-0.845425,-0.816902,-0.430867,-10.283315,226.153800,5.982794,-10.174332,1.000000,1.000000,
258479262,226.598174,226.598174,34.330812,3,0.520813,-0.028503,0.316467,0.792297,0.058070,-0.041295,0.067472,0.026406,0.089981,-9.783499,226.292417,5.943171,-9.917995,1.000000,1.000000,
258490025,225.876006,225.876006,34.335342,3,0.522644,-0.028748,0.318909,0.790161,0.143979,0.443193,-0.810906,-0.675535,-0.429891,-10.286024,226.277775,5.785147,-10.159376,1.000000,1.000000,
258499353,226.477202,226.477202,34.326283,3,0.524414,-0.028992,0.321350,0.787964,0.225684,0.431456,-0.431708,-0.595572,-0.156528,-10.020562,226.368662,5.714761,-10.068331,1.000000,1.000000,
258508837,226.297057,226.297057,34.335342,3,0.526001,-0.029114,0.323853,0.785889,0.159993,0.086812,-0.382113,-0.253321,-0.103933,-10.121530,226.409003,5.610619,-10.103223,1.000000,1.000000,
258519957,226.808440,226.808440,34.330812,3,0.527588,-0.029175,0.326355,0.783752,0.165676,0.331866,-0.475623,-0.497294,-0.205773,-10.079873,226.545555,5.543530,-10.087907,1.000000,1.000000,
258529378,226.297057,226.297057,34.335342,3,0.529114,-0.029236,0.328857,0.781677,0.071969,-0.045049,-0.100627,-0.027847,0.015297,-9.924064,226.550808,5.421460,-9.980448,1.000000,1.000000,
258539129,226.266936,226.266936,34.326283,3,0.530579,-0.029297,0.331360,0.779602,0.215097,0.345382,-0.751142,-0.612693,-0.315188,-10.300843,226.550036,5.288718,-10.190586,1.000000,1.000000,
