Code compiled on Mar 21 2026 at 12:11:29
﻿Simulation Mode (T/F),F
Airbrakes Enabled (T/F),T
Log File Name,RF
Sim File Name (if applicable),Sim
Burnout Mass (kg),0.6
Air Density (kg/m^3),1.193
Rocket CD,0.5
Airbrake CD,0.7
Rocket Area (m^2),0.00243
Kalman Model Y STD,1
Kalman Model V STD,0.4
Kalman Model A STD,5
Kalman Measurement Y STD,5
Kalman Measurement A STD,2
Target Apogee (m),223.6
Launch Acceleration Threshold (m/s^2),40
Coast Lockout (s),1.5
KP (1/s),0.24
Altimeter Lockout (s),90
Control Max Velocity (dep/s),5

Calibration point: 288.818774
Time (us),RAW Altitude AGL (m),Corrected Altitude AGL (m),Temperature (deg C),Mode,IMU Quat W,IMU Quat X,IMU Quat Y,IMU Quat Z,IMU Raw Local Acceleration X,IMU Raw Local Acceleration Y,IMU Raw Local Acceleration Z,IMU Global Acceleration x,IMU Global Acceleration y,IMU Global Acceleration z,State Estimation y,State Estimation v,State Estimation a,Commanded servo deployment,Real servo deployment,
135265610,-0.368701,-0.368701,34.167752,1,-0.887512,0.008911,-0.006653,-0.460632,0.101309,0.475405,15.463055,-0.274315,0.687811,5.650345,0.086354,-0.134828,3.670708,0.000000,0.000000,
135274283,-0.253405,-0.253405,34.172282,2,-0.887512,0.008911,-0.006653,-0.460632,4.461958,3.301401,100.587951,0.230881,7.747197,90.639514,0.028431,0.633038,60.710837,0.000000,0.000000,
135284436,-0.459185,-0.459185,34.172282,2,-0.887512,0.008911,-0.006653,-0.460632,3.255528,7.006464,100.737124,-3.492763,8.896373,90.776904,-0.050601,1.485210,80.430232,0.000000,0.000000,
135292774,0.364911,0.364911,34.172282,2,-0.887390,0.009094,-0.006104,-0.460815,1.034528,3.873368,98.579278,-2.333833,5.210699,88.692862,0.042885,2.277756,85.849435,0.000000,0.000000,
135301988,-0.755938,-0.755938,34.176811,2,-0.887390,0.009094,-0.006104,-0.460815,5.556529,0.871353,105.349443,2.714903,7.346550,95.405769,-0.080997,3.063162,92.117134,0.000000,0.000000,
135310321,-0.253405,-0.253405,34.172282,2,-0.888916,0.010620,-0.005127,-0.457947,3.032960,2.535580,108.659092,-0.404182,6.508270,98.732867,-0.084001,3.867660,96.456186,0.000000,0.000000,
135320260,-0.253405,-0.253405,34.172282,2,-0.891113,0.011902,-0.003967,-0.453674,7.317065,3.123980,108.294619,1.351892,10.437550,98.271635,-0.072279,4.824326,97.646882,0.000000,0.000000,
135328743,1.073255,1.073255,34.167752,2,-0.893616,0.012451,-0.003113,-0.448608,3.944612,-0.832438,109.399223,2.390921,5.427458,99.509472,0.186201,5.801237,98.868501,0.000000,0.000000,
135337806,-0.047137,-0.047137,34.172282,2,-0.897400,0.013977,-0.002869,-0.440979,5.244971,1.733104,108.965507,1.051026,8.216636,98.986444,0.199297,6.671829,98.945855,0.000000,0.000000,
135348391,0.249097,0.249097,34.167752,2,-0.902832,0.014282,-0.002686,-0.429810,6.570499,1.628449,109.831599,2.058155,9.204646,99.830440,0.284845,7.733696,99.526027,0.000000,0.000000,
135357551,0.042829,0.042829,34.167752,2,-0.908142,0.014343,-0.003052,-0.418396,1.111478,2.411999,108.996424,-1.815916,5.527163,99.069196,0.314576,8.612722,99.226405,0.000000,0.000000,
135367256,0.364911,0.364911,34.172282,2,-0.915649,0.014526,-0.003723,-0.401733,-1.506208,0.275451,110.276272,-1.757648,2.339998,100.443669,0.412351,9.593283,100.024771,0.000000,0.000000,
135377968,0.661176,0.661176,34.167752,2,-0.923706,0.014221,-0.004456,-0.382812,4.716232,2.021722,110.757527,1.607112,8.042635,100.767822,0.567499,10.701616,100.512116,0.000000,0.000000,
135387474,0.339063,0.339063,34.163223,2,-0.930176,0.013611,-0.003967,-0.366821,4.629671,0.517719,109.779747,2.750725,6.629046,99.839897,0.630920,11.623028,100.071227,0.000000,0.000000,
135397181,0.545362,0.545362,34.163223,2,-0.936829,0.013367,-0.003418,-0.349426,3.408220,1.388050,110.034327,1.341870,6.293809,100.103710,0.732437,12.584477,100.092531,0.000000,0.000000,
135408255,0.957441,0.957441,34.163223,2,-0.944214,0.013000,-0.003357,-0.329041,4.558479,8.766951,104.597240,-2.107874,12.485907,94.492520,0.919547,13.660506,96.419659,0.000000,0.000000,
135417562,0.866956,0.866956,34.167752,2,-0.950928,0.011963,-0.003662,-0.309143,7.272583,-7.407671,100.934235,10.194559,0.809410,91.146919,1.040517,14.499990,92.961433,0.000000,0.000000,
135428532,1.344221,1.344221,34.154164,2,-0.956238,0.011108,-0.003113,-0.292419,20.159928,3.306299,104.450178,14.804326,16.420660,94.304593,1.262302,15.570928,93.842371,0.000000,0.000000,
135437890,1.369550,1.369550,34.163223,2,-0.958618,0.011780,-0.002014,-0.284424,16.948823,-1.759459,107.280293,14.858521,10.310954,97.305588,1.432571,16.496253,96.113788,0.000000,0.000000,
135447638,1.047925,1.047925,34.158693,2,-0.957764,0.011169,-0.001404,-0.287292,12.181783,5.849690,106.778243,6.546591,13.950120,96.717442,1.525834,17.391839,96.509704,0.000000,0.000000,
135458522,1.485364,1.485364,34.167752,2,-0.956787,0.010803,-0.001099,-0.290527,-15.360209,9.536265,105.978485,-18.509731,1.637152,96.088985,1.713205,18.432887,96.233767,0.000000,0.000000,
135467948,2.077955,2.077955,34.158693,2,-0.956726,0.009705,-0.002930,-0.290833,-1.911850,2.483643,108.130478,-2.980471,3.181236,98.286068,1.959899,19.405499,97.579809,0.000000,0.000000,
135477515,1.665845,1.665845,34.158693,2,-0.956909,0.009583,-0.004700,-0.290161,4.190720,5.533542,108.983275,0.785159,9.219440,99.008913,2.094970,20.316657,98.517112,0.000000,0.000000,
135488618,2.103315,2.103315,34.167752,2,-0.954224,0.011230,-0.004395,-0.298889,4.071537,3.754062,110.753692,1.383405,8.060994,100.786750,2.328416,21.435559,100.005697,0.000000,0.000000,
135498075,2.283765,2.283765,34.158693,2,-0.949646,0.011230,-0.002747,-0.313171,2.936695,2.771429,109.027702,0.507027,6.479011,99.105778,2.527136,22.366885,99.415468,0.000000,0.000000,
135507736,2.696454,2.696454,34.158693,2,-0.944214,0.011047,-0.002136,-0.329163,6.368231,1.619031,109.368480,3.627319,7.660380,99.434823,2.779639,23.348376,99.428163,0.000000,0.000000,
135518450,2.902265,2.902265,34.158693,2,-0.938599,0.011353,-0.001709,-0.344849,3.425648,2.213449,108.913322,0.673046,6.342401,98.999893,3.058478,24.424207,99.147275,0.000000,0.000000,
135527907,3.405469,3.405469,34.154164,2,-0.932617,0.012085,-0.002136,-0.360596,5.131321,2.885739,109.214991,1.339677,8.208213,99.253551,3.359044,25.405906,99.216979,0.000000,0.000000,
135538683,3.817670,3.817670,34.154164,2,-0.927368,0.013245,-0.002625,-0.373840,4.017419,2.039038,107.829716,0.935213,7.109669,97.881504,3.724556,26.517324,98.341085,0.000000,0.000000,
135548004,4.023511,4.023511,34.154164,2,-0.922180,0.015137,-0.003845,-0.386475,4.757213,3.217836,108.069586,0.544232,8.977492,98.042612,4.032099,27.468209,98.145327,0.000000,0.000000,
135557733,4.345228,4.345228,34.158693,2,-0.916931,0.017456,-0.005554,-0.398621,4.606897,2.288469,107.587954,1.063820,8.842141,97.535173,4.362679,28.455445,97.745147,0.000000,0.000000,
135568516,4.048353,4.048353,34.163223,2,-0.911743,0.020325,-0.007690,-0.410217,4.039810,3.007165,106.008314,0.148686,9.609433,95.892510,4.616016,29.451885,96.530059,0.000000,0.000000,
135578161,4.667463,4.667463,34.163223,2,-0.906555,0.023682,-0.010315,-0.421265,5.001978,2.931537,105.435248,0.851827,11.138736,95.198267,4.914104,30.376084,95.656578,0.000000,0.000000,
135587917,5.169691,5.169691,34.158693,2,-0.901489,0.027466,-0.013306,-0.431702,4.337904,2.689303,104.643796,0.650588,11.432813,94.341850,5.262849,31.327720,94.794290,0.000000,0.000000,
135598668,6.084791,6.084791,34.154164,2,-0.896545,0.031860,-0.016785,-0.441528,5.034358,3.404250,103.563610,0.576267,13.498090,93.052656,5.759250,32.428826,93.652010,0.000000,0.000000,
135608106,5.672498,5.672498,34.154164,2,-0.891663,0.036621,-0.020569,-0.450684,4.937051,2.761032,103.516319,1.089109,14.264431,92.873925,6.053128,33.294396,93.141688,0.000000,0.000000,
135617878,6.084791,6.084791,34.154164,2,-0.886963,0.041870,-0.024719,-0.459229,5.105374,3.439577,102.486484,0.690082,16.055069,91.598831,6.388730,34.193365,92.129776,0.000000,0.000000,
135628950,7.205854,7.205854,34.149634,2,-0.882446,0.047424,-0.029053,-0.467102,5.456068,2.994157,102.072472,1.300738,17.462768,90.950457,6.926237,35.300046,91.356301,0.000000,0.000000,
135638444,7.758924,7.758924,34.163223,2,-0.878174,0.053284,-0.033630,-0.474182,5.290111,3.399712,100.707906,0.916706,18.869458,89.321626,7.421661,36.250349,90.021825,0.000000,0.000000,
135649220,7.875349,7.875349,34.167752,2,-0.874207,0.059387,-0.038391,-0.480408,5.948302,3.675043,100.756521,1.096840,21.091638,88.967334,7.902608,37.264823,89.330219,0.000000,0.000000,
135658697,8.970746,8.970746,34.154164,2,-0.870483,0.065674,-0.043152,-0.485901,5.941788,3.360892,99.956440,1.388904,22.351371,87.852922,8.460218,38.229085,88.361310,0.000000,0.000000,
135668177,9.499067,9.499067,34.158693,2,-0.867065,0.072021,-0.048035,-0.490601,6.502315,3.972687,97.759196,1.172129,24.323646,85.186889,9.021234,39.163127,86.279310,0.000000,0.000000,
135678857,10.323957,10.323957,34.158693,2,-0.863953,0.078430,-0.052856,-0.494568,7.003426,3.541429,98.014759,1.832742,26.091225,84.979694,9.688732,40.228479,85.426937,0.000000,0.000000,
135688237,10.529951,10.529951,34.158693,2,-0.861206,0.084839,-0.057495,-0.497803,7.249627,4.348088,96.980528,1.247312,27.989965,83.422408,10.227500,41.113238,84.112233,0.000000,0.000000,
135697999,11.354932,11.354932,34.158693,2,-0.858826,0.091064,-0.061951,-0.500305,7.473895,4.029163,96.901936,1.650547,29.440565,82.898021,10.844172,42.058551,83.315874,0.000000,0.000000,
135708988,12.592512,12.592512,34.158693,2,-0.856812,0.097107,-0.066162,-0.502014,7.743113,4.283778,95.043569,1.538144,30.729067,80.558683,11.639147,43.155100,81.507525,0.000000,0.000000,
135718615,13.211103,13.211103,34.158693,2,-0.855286,0.102905,-0.069946,-0.502991,7.765387,4.424137,95.136639,1.425538,32.092827,80.189193,12.353309,44.119205,80.642879,0.000000,0.000000,
135728349,13.649579,13.649579,34.167752,2,-0.854187,0.108276,-0.073364,-0.503235,7.994097,4.188952,93.474205,1.725128,32.896308,78.134988,13.029538,45.036839,78.998037,0.000000,0.000000,
135739480,14.152265,14.152265,34.163223,2,-0.853577,0.113220,-0.076233,-0.502808,8.359430,4.932997,92.759872,1.228424,34.379834,76.884244,13.746255,46.028981,77.611671,0.000000,0.000000,
135748888,15.480817,15.480817,34.158693,2,-0.853455,0.117615,-0.078613,-0.501587,8.360465,4.490488,93.315097,1.637537,35.198978,77.123084,14.508336,46.967810,77.291230,0.000000,0.000000,
135759712,16.009473,16.009473,34.163223,2,-0.854004,0.121521,-0.080383,-0.499451,8.721045,4.904460,92.424819,1.451713,36.177464,75.816936,15.302915,47.970942,76.324293,0.000000,0.000000,
135768922,16.486890,16.486890,34.149634,2,-0.855042,0.124817,-0.081543,-0.496704,8.594676,4.999301,91.322372,1.308216,36.385462,74.532197,15.970047,48.802086,75.148918,0.000000,0.000000,
135778643,17.131605,17.131605,34.158693,2,-0.856384,0.127502,-0.082092,-0.493591,8.638163,4.844113,90.567171,1.455058,36.561787,73.635155,16.665722,49.658026,74.156093,0.000000,0.000000,
135789371,17.724592,17.724592,34.149634,2,-0.858154,0.129456,-0.082092,-0.490051,8.315061,5.557404,89.233709,0.672989,36.517069,72.227686,17.401182,50.560531,72.891315,0.000000,0.000000,
135798912,18.782697,18.782697,34.158693,2,-0.860474,0.130737,-0.081360,-0.485718,8.388090,4.836504,89.279787,1.331933,36.358677,72.297442,18.146054,51.418055,72.501818,0.000000,0.000000,
135808658,19.079481,19.079481,34.154164,2,-0.863281,0.131287,-0.080078,-0.480774,7.856373,5.182318,87.831898,0.773405,35.630334,71.022198,18.825528,52.222415,71.531385,0.000000,0.000000,
135819744,18.963453,18.963453,34.149634,2,-0.866760,0.131104,-0.078064,-0.474792,7.462311,5.067538,87.488685,0.677242,34.959471,70.895655,19.434675,53.025149,71.114430,0.000000,0.000000,
135828935,18.163251,18.163251,34.158693,2,-0.870911,0.130249,-0.075378,-0.467773,6.925251,4.504562,86.070110,0.871358,33.480314,69.911203,19.686347,53.511960,70.325265,0.000000,0.000000,
135838776,19.789106,19.789106,34.149634,2,-0.875610,0.128723,-0.072083,-0.459900,6.648425,4.934825,84.910406,0.361433,32.680829,69.007499,20.235514,54.203450,69.460984,0.000000,0.000000,
135849506,19.195508,19.195508,34.158693,2,-0.880737,0.126465,-0.068298,-0.451233,5.969862,4.117627,84.492312,0.655843,30.974090,69.135340,20.625999,54.821180,69.247400,0.000000,0.000000,
135859102,19.402173,19.402173,34.158693,2,-0.886230,0.123718,-0.064148,-0.441772,5.549463,4.405721,83.136195,0.182425,29.744535,68.154182,20.925549,55.326729,68.530387,0.000000,0.000000,
135869885,19.608320,19.608320,34.158693,2,-0.891907,0.120361,-0.059814,-0.431763,4.929184,3.921269,83.024803,0.212561,28.176003,68.545832,21.278960,55.907956,68.540512,0.000000,0.000000,
135879336,19.582960,19.582960,34.149634,2,-0.897705,0.116638,-0.055359,-0.421265,4.468759,3.570421,82.723646,0.200858,26.702409,68.706736,21.492179,56.351284,68.649525,0.000000,0.000000,
135889004,20.021161,20.021161,34.158693,2,-0.903564,0.112488,-0.050903,-0.410278,4.019621,3.830158,80.523432,-0.265223,25.104270,66.911671,21.764203,56.821772,67.509715,0.000000,0.000000,
135900002,20.434034,20.434034,34.158693,2,-0.909424,0.108154,-0.046509,-0.398926,3.625427,2.979204,79.519715,0.128937,23.142493,66.420143,22.143573,57.394411,66.795093,0.000000,0.000000,
135909370,20.937055,20.937055,34.154164,2,-0.915161,0.103638,-0.042419,-0.387207,3.352695,3.177831,78.166720,-0.149488,21.887297,65.375107,22.457679,57.859970,65.863763,0.000000,0.000000,
135919130,21.878919,21.878919,34.158693,2,-0.920837,0.099060,-0.038635,-0.375122,2.954909,2.405810,78.502678,0.184182,20.290652,66.128477,22.917040,58.436245,66.037378,0.000000,0.000000,
135929789,21.465986,21.465986,34.158693,2,-0.926392,0.094482,-0.035217,-0.362793,2.662169,2.383488,76.539512,0.086368,18.835324,64.472232,23.271375,58.951473,65.010842,0.000000,0.000000,
135939364,23.207929,23.207929,34.154164,2,-0.931763,0.090088,-0.032288,-0.350159,2.338125,2.084573,75.927039,0.162189,17.507441,64.147305,23.826836,59.557824,64.444474,0.000000,0.000000,
135949104,23.504835,23.504835,34.149634,2,-0.937012,0.085938,-0.029907,-0.337341,2.106649,1.428520,74.824214,0.562803,15.957931,63.342378,24.349523,60.136386,63.721642,0.000000,0.000000,
135960158,24.446943,24.446943,34.154164,2,-0.941956,0.082092,-0.028076,-0.324280,2.194781,1.409037,73.954611,0.840992,15.203251,62.619464,25.036323,60.840618,62.998758,0.000000,0.000000,
135969700,24.356763,24.356763,34.158693,2,-0.946716,0.078796,-0.026917,-0.311096,1.921594,0.876815,73.081044,1.165067,13.934106,61.955615,25.492136,61.349275,62.314590,0.000000,0.000000,
135980527,24.885877,24.885877,34.163223,2,-0.951172,0.075989,-0.026306,-0.297974,2.379266,0.887808,70.966104,1.782619,13.425935,59.911109,26.046016,61.926280,60.738219,0.000000,0.000000,
135989789,25.827589,25.827589,34.167752,2,-0.955383,0.073914,-0.026367,-0.284790,2.331832,0.558455,71.264455,2.232943,12.847426,60.301315,26.581162,62.458152,60.451666,0.000000,0.000000,
135999403,26.512281,26.512281,34.154164,2,-0.959290,0.072632,-0.026978,-0.271484,2.598700,0.486501,70.736854,2.826144,12.643039,59.792827,27.171459,63.024788,60.019554,0.000000,0.000000,
136010143,27.958539,27.958539,34.154164,2,-0.963013,0.072144,-0.028076,-0.258057,3.000778,0.727761,68.744016,3.385179,12.648947,57.758396,27.999163,63.738917,58.536534,0.000000,0.000000,
136019639,28.577527,28.577527,34.154164,2,-0.966492,0.072510,-0.029541,-0.244446,3.196396,0.359909,68.683179,4.119226,12.423263,57.700751,28.715446,64.355871,57.988373,0.000000,0.000000,
136029364,28.668256,28.668256,34.149634,2,-0.969788,0.073730,-0.031250,-0.230469,3.351493,1.030769,66.403865,4.285189,12.841142,55.297688,29.334965,64.888005,56.223636,0.000000,0.000000,
136040483,29.520093,29.520093,34.158693,2,-0.972839,0.075806,-0.033020,-0.216125,3.602093,0.961049,65.974868,4.927230,13.023486,54.792143,30.094499,65.519731,55.284765,0.000000,0.000000,
136049916,30.139692,30.139692,34.158693,2,-0.975769,0.078491,-0.034729,-0.201294,3.720976,1.511525,64.058374,5.123707,13.513869,52.731000,30.723248,66.021529,53.609830,0.000000,0.000000,
136059569,30.850599,30.850599,34.154164,2,-0.978455,0.081909,-0.036255,-0.185852,4.131499,1.998001,63.776023,5.679716,14.384380,52.244738,31.386801,66.540879,52.714509,0.000000,0.000000,
136070287,32.180768,32.180768,34.149634,2,-0.981018,0.085815,-0.037537,-0.169861,4.212633,1.940725,62.984636,6.095491,14.577557,51.344017,32.251740,67.185229,51.815649,0.000000,0.000000,
136079764,32.413099,32.413099,34.158693,2,-0.983276,0.090210,-0.038574,-0.153381,4.581355,3.117442,61.268995,6.338894,15.860784,49.301220,32.920808,67.670972,50.166514,0.000000,0.000000,
136090555,33.239301,33.239301,34.158693,2,-0.985291,0.094849,-0.039246,-0.136475,4.342105,2.792525,60.837283,6.525126,15.788218,48.810004,33.713556,68.235760,49.276823,0.000000,0.000000,
136099832,33.859662,33.859662,34.158693,2,-0.987061,0.099609,-0.039429,-0.119202,4.594089,3.914476,58.858704,6.676611,16.890841,46.504738,34.375849,68.683587,47.458699,0.000000,0.000000,
136109657,34.570295,34.570295,34.154164,2,-0.988586,0.104370,-0.039124,-0.101440,4.666593,4.022893,58.407669,6.993153,17.260634,45.896384,35.089255,69.157523,46.434026,0.000000,0.000000,
136120716,35.397199,35.397199,34.154164,2,-0.989807,0.108826,-0.038330,-0.083252,4.430181,4.199663,56.966241,6.917458,17.371964,44.354137,35.914436,69.685146,45.069893,0.000000,0.000000,
136130149,36.637678,36.637678,34.154164,2,-0.990784,0.112915,-0.036987,-0.064697,4.369575,4.837389,55.838401,6.936758,17.953179,43.023081,36.709237,70.176853,43.727456,0.000000,0.000000,
136139845,37.464734,37.464734,34.154164,2,-0.991516,0.116455,-0.035095,-0.045654,4.107957,4.508023,54.751657,6.857964,17.522568,41.976496,37.533170,70.673106,42.579059,0.000000,0.000000,
136150758,37.167402,37.167402,34.158693,2,-0.991943,0.119324,-0.032715,-0.026245,3.541061,4.827683,52.558613,6.314331,17.369141,39.764129,38.238097,71.065226,40.732832,0.000000,0.000000,
136160003,38.381116,38.381116,34.149634,2,-0.992126,0.121460,-0.029907,-0.006775,3.122229,4.383461,51.166563,5.970453,16.618351,38.525849,38.923455,71.437542,39.285342,0.000000,0.000000,
136169946,39.738721,39.738721,34.154164,2,-0.992004,0.122803,-0.026733,0.013062,2.898882,4.496483,49.525949,5.758055,16.293151,36.920180,39.788259,71.900672,37.734109,0.000000,0.000000,
136180863,39.855482,39.855482,34.158693,2,-0.991577,0.123230,-0.023315,0.033203,2.482796,4.144017,47.362920,5.298400,15.333172,34.961088,40.587770,72.291267,35.915371,0.000000,0.000000,
136190425,40.178846,40.178846,34.163223,2,-0.990784,0.122742,-0.019775,0.053528,2.245691,3.435607,45.227946,4.939603,13.963648,33.126782,41.203713,72.558255,34.086421,0.000000,0.000000,
136201082,41.212781,41.212781,34.163223,2,-0.989685,0.121460,-0.016296,0.073914,2.231605,3.123388,40.472948,4.672620,12.295362,28.662814,41.980062,72.866226,30.529246,0.000000,0.000000,
136210502,42.427473,42.427473,34.154164,2,-0.988281,0.119324,-0.012878,0.094360,1.923077,2.493579,37.405561,4.130426,10.741009,25.927160,42.751300,73.162363,27.510883,0.000000,0.000000,
136220101,42.957502,42.957502,34.158693,2,-0.986450,0.116577,-0.009705,0.114868,1.664252,1.985318,31.785398,3.528757,8.731473,20.670278,43.492892,73.384729,23.024344,0.000000,0.000000,
136231065,42.661085,42.661085,34.163223,2,-0.984314,0.113342,-0.006714,0.135254,1.383939,1.549230,28.990872,3.015004,7.493161,18.117430,44.142447,73.488438,19.806049,0.000000,0.000000,
136240445,44.496412,44.496412,34.154164,2,-0.981689,0.109741,-0.004028,0.155579,1.299227,0.739748,24.985648,2.517729,5.633192,14.451616,44.898517,73.664061,16.294245,0.000000,0.000000,
136250157,44.496412,44.496412,34.154164,2,-0.978699,0.106018,-0.001587,0.175903,1.326704,0.589374,21.752121,2.331264,4.583194,11.385399,45.538935,73.727389,13.074684,0.000000,0.000000,
136260968,45.053022,45.053022,34.167752,2,-0.975220,0.102234,0.000610,0.196228,1.177330,-0.237069,17.863229,1.694975,2.897474,7.781456,46.245165,73.756809,9.603019,0.000000,0.000000,
136270470,45.944135,45.944135,34.154164,2,-0.971252,0.098633,0.002502,0.216675,1.211743,-0.329870,14.551919,1.513130,1.992859,4.589983,46.889546,73.763151,6.315124,0.000000,0.000000,
136280200,46.771924,46.771924,34.154164,2,-0.966736,0.095276,0.004211,0.237366,1.293231,-0.744826,11.433354,1.229239,0.883155,1.633015,47.585104,73.765130,3.244274,0.000000,0.000000,
136291253,46.888776,46.888776,34.158693,2,-0.961670,0.092346,0.005615,0.258179,1.426716,-0.980524,9.281957,1.092603,0.132432,-0.419430,48.269724,73.680950,0.841362,0.000000,0.000000,
136300500,47.743146,47.743146,34.167752,2,-0.955994,0.089905,0.006836,0.279236,1.685787,-0.847768,6.825859,1.218911,-0.406314,-2.834101,48.852035,73.590399,-1.569262,0.000000,0.000000,
136311465,48.751356,48.751356,34.158693,2,-0.949646,0.087952,0.007935,0.300537,1.334299,-1.154390,5.409436,0.641389,-0.762367,-4.199305,49.639717,73.533724,-3.294226,0.000000,0.000000,
136320721,49.074995,49.074995,34.163223,2,-0.942688,0.086609,0.009033,0.322083,1.526359,-0.485960,3.924266,1.066638,-0.643187,-5.745433,50.214103,73.412252,-4.901899,0.000000,0.000000,
136330464,50.523359,50.523359,34.163223,2,-0.935059,0.085815,0.010376,0.343811,1.321544,-0.328546,3.405273,0.936246,-0.531215,-6.296867,50.986942,73.387125,-5.816814,0.000000,0.000000,
136341218,50.937940,50.937940,34.163223,2,-0.926758,0.085571,0.011963,0.365662,1.198501,-0.436104,2.090332,0.660037,-0.780740,-7.578853,51.766453,73.300548,-6.972481,0.000000,0.000000,
136350741,51.325544,51.325544,34.154164,2,-0.917664,0.085876,0.013794,0.387695,0.979824,0.039433,1.201244,0.763298,-0.465723,-8.530941,52.381391,73.166749,-7.994628,0.000000,0.000000,
136360393,51.856580,51.856580,34.158693,2,-0.907959,0.086609,0.015930,0.409668,1.003399,-0.139251,0.722360,0.595754,-0.720220,-8.969108,52.988824,73.018789,-8.633762,0.000000,0.000000,
136371212,52.179761,52.179761,34.163223,2,-0.897583,0.087524,0.018311,0.431641,1.021940,0.102185,-0.431319,0.699472,-0.805069,-10.123842,53.626548,72.815893,-9.611062,0.000000,0.000000,
136380709,53.396253,53.396253,34.154164,2,-0.886597,0.088684,0.020935,0.453491,0.589477,0.685362,-0.958682,0.855704,-0.253095,-10.769993,54.274378,72.686067,-10.371170,0.000000,0.000000,
136390583,53.836439,53.836439,34.163223,2,-0.874939,0.090027,0.023804,0.475159,0.401163,0.103798,-1.364567,0.248172,-0.529076,-11.102688,54.909464,72.525361,-10.850951,0.000000,0.000000,
136401367,54.224683,54.224683,34.154164,2,-0.862732,0.091553,0.026978,0.496643,-0.050147,0.972169,-2.411597,0.704672,0.064759,-12.298943,55.562458,72.313487,-11.800647,0.000000,0.000000,
136410846,54.781843,54.781843,34.167752,2,-0.849915,0.092896,0.030334,0.517761,-0.438530,0.553831,-2.622553,0.166158,0.123506,-12.502132,56.101003,72.102523,-12.260732,0.000000,0.000000,
136421717,56.088575,56.088575,34.154164,2,-0.836670,0.093933,0.033936,0.538513,-0.639968,0.710646,-3.617196,0.218104,0.148702,-13.535721,56.881646,71.954395,-13.096958,0.000000,0.000000,
136431103,57.006605,57.006605,34.149634,2,-0.822998,0.094666,0.037476,0.558777,-0.834606,0.540427,-3.300590,0.038293,0.298215,-13.235626,57.579847,71.844928,-13.187905,0.000000,0.000000,
136440674,56.943189,56.943189,34.163223,2,-0.809082,0.095093,0.041077,0.578430,-0.823841,0.555287,-4.419893,0.059361,0.047828,-14.329607,58.147504,71.633311,-13.936714,0.000000,0.000000,
136451733,58.185712,58.185712,34.163223,2,-0.794922,0.095032,0.044495,0.597534,-1.296332,0.166158,-4.216823,-0.394571,0.394065,-14.182741,58.945980,71.481013,-14.098076,0.000000,0.000000,
136461266,58.690565,58.690565,34.158693,2,-0.780579,0.094482,0.047852,0.615967,-1.029111,-0.018148,-4.459458,-0.454084,0.051158,-14.353072,59.578862,71.313891,-14.265321,0.000000,0.000000,
136470974,59.519391,59.519391,34.158693,2,-0.766113,0.093506,0.051025,0.633789,-1.238932,0.334247,-5.103170,-0.114159,0.181956,-15.058127,60.259291,71.160710,-14.785298,0.000000,0.000000,
136481702,59.519391,59.519391,34.158693,2,-0.751526,0.092163,0.054016,0.651001,-0.901509,0.024578,-4.741545,-0.299964,-0.117281,-14.619069,60.883206,70.917861,-14.676276,0.000000,0.000000,
136491169,60.762769,60.762769,34.158693,2,-0.736877,0.090454,0.056641,0.667603,-0.943808,0.000192,-5.407615,-0.302990,-0.213549,-15.279776,61.531301,70.758833,-15.072094,0.000000,0.000000,
136500896,61.087293,61.087293,34.163223,2,-0.722046,0.088501,0.059021,0.683594,-0.767915,-0.341487,-5.181122,-0.572615,-0.348718,-15.007583,62.135697,70.561193,-15.029785,0.000000,0.000000,
136511992,61.915784,61.915784,34.163223,2,-0.707153,0.086426,0.060974,0.699097,-0.446236,-0.277548,-5.812858,-0.487631,-0.770931,-15.564268,62.876450,70.363286,-15.380337,0.000000,0.000000,
136521441,62.213300,62.213300,34.158693,2,-0.692261,0.084167,0.062622,0.713989,-0.378634,0.107961,-5.802015,-0.082090,-0.836623,-15.559447,63.416293,70.137803,-15.497812,0.000000,0.000000,
136532300,63.041883,63.041883,34.158693,2,-0.677368,0.081787,0.063965,0.728271,-0.131502,-0.371091,-5.516626,-0.543391,-0.975920,-15.218045,64.106841,69.928779,-15.314323,0.000000,0.000000,
136541555,63.871076,63.871076,34.158693,2,-0.662354,0.079407,0.065002,0.742126,-0.027700,0.247372,-6.143642,0.048304,-1.239890,-15.828497,64.709132,69.754153,-15.651555,0.000000,0.000000,
136551224,63.961591,63.961591,34.154164,2,-0.647217,0.077087,0.065674,0.755554,0.086531,0.237499,-5.674076,0.037081,-1.253412,-15.340433,65.242855,69.518839,-15.447503,0.000000,0.000000,
136561889,64.817365,64.817365,34.163223,2,-0.631958,0.074890,0.066101,0.768555,0.200805,-0.012946,-5.804510,-0.227583,-1.338980,-15.452918,65.903676,69.304842,-15.451056,0.000000,0.000000,
136571269,65.231489,65.231489,34.163223,2,-0.616394,0.072815,0.066345,0.781250,0.618169,0.451763,-6.176310,0.104582,-1.896267,-15.728101,66.427112,69.078489,-15.632764,0.000000,0.000000,
136580810,65.944837,65.944837,34.158693,2,-0.600647,0.070801,0.066528,0.793579,0.566337,0.013346,-5.444411,-0.315998,-1.581650,-15.036473,66.995235,68.879304,-15.241677,0.000000,0.000000,
136591829,66.800245,66.800245,34.167752,2,-0.584656,0.068909,0.066650,0.805603,0.459230,0.570063,-6.218830,0.197600,-1.775127,-15.802179,67.716710,68.683089,-15.609293,0.000000,0.000000,
136601422,67.097394,67.097394,34.163223,2,-0.568359,0.067139,0.066895,0.817322,0.640047,0.505446,-5.530121,0.070007,-1.793059,-15.100866,68.258865,68.465832,-15.275834,0.000000,0.000000,
136612354,68.341657,68.341657,34.163223,2,-0.551758,0.065674,0.067139,0.828735,-0.071624,0.429243,-5.972647,0.215353,-1.199767,-15.666053,69.021899,68.304319,-15.531766,0.000000,0.000000,
136621819,68.549329,68.549329,34.163223,2,-0.534790,0.064270,0.067444,0.839844,0.008219,0.909032,-6.167444,0.603991,-1.517834,-15.817363,69.579088,68.098718,-15.719082,0.000000,0.000000,
136631392,68.549329,68.549329,34.163223,2,-0.517639,0.063049,0.067932,0.850586,0.186440,0.585095,-5.583663,0.231497,-1.439722,-15.223402,70.037421,67.833074,-15.393985,0.000000,0.000000,
136642328,69.468458,69.468458,34.158693,2,-0.500183,0.061951,0.068604,0.860962,0.168941,0.762147,-6.075935,0.345061,-1.618504,-15.695781,70.671679,67.595861,-15.591926,0.000000,0.000000,
136651647,70.920728,70.920728,34.158693,2,-0.482544,0.060852,0.069397,0.871033,0.240588,0.607982,-5.432617,0.182703,-1.503593,-15.056209,71.347648,67.485042,-15.240565,0.000000,0.000000,
136661520,70.713544,70.713544,34.158693,2,-0.464844,0.059631,0.070190,0.880554,0.046787,0.928257,-6.185511,0.502577,-1.667992,-15.815129,71.894371,67.255522,-15.617406,0.000000,0.000000,
136672470,71.750532,71.750532,34.158693,2,-0.447144,0.058411,0.071228,0.889709,-0.440929,0.756474,-5.542063,0.653060,-1.100423,-15.270535,72.602963,67.071557,-15.389905,0.000000,0.000000,
136681927,72.995374,72.995374,34.158693,2,-0.429382,0.057190,0.072266,0.898376,0.180413,0.670414,-5.750484,0.173739,-1.587104,-15.364503,73.310121,66.972412,-15.373243,0.000000,0.000000,
136691557,72.697553,72.697553,34.163223,2,-0.411560,0.055908,0.073486,0.906677,-0.018094,1.095869,-5.767767,0.602484,-1.740824,-15.372439,73.839619,66.753263,-15.372718,0.000000,0.000000,
136702612,73.734754,73.734754,34.163223,2,-0.393738,0.054565,0.074829,0.914551,-0.005227,0.549182,-5.452309,0.177137,-1.353337,-15.105278,74.557014,66.574064,-15.197313,0.000000,0.000000,
136712050,73.617597,73.617597,34.158693,2,-0.375977,0.053040,0.076294,0.921997,0.026154,1.026786,-6.203872,0.455888,-1.868533,-15.787544,75.008538,66.314368,-15.584431,0.000000,0.000000,
136722892,74.447614,74.447614,34.158693,2,-0.358154,0.051331,0.077820,0.929016,-0.058107,0.665844,-5.550675,0.275180,-1.460931,-15.190666,75.621504,66.084452,-15.326175,0.000000,0.000000,
136732110,75.484479,75.484479,34.158693,2,-0.340271,0.049683,0.079468,0.935608,0.005005,0.414247,-5.742369,0.042703,-1.369979,-15.394420,76.204332,65.926382,-15.370936,0.000000,0.000000,
136741856,76.404767,76.404767,34.154164,2,-0.322449,0.047852,0.081177,0.941895,-0.036219,0.595084,-6.066880,0.163963,-1.566133,-15.693963,76.883630,65.796625,-15.582799,0.000000,0.000000,
136752663,76.521955,76.521955,34.158693,2,-0.304626,0.045898,0.083008,0.947754,-0.086575,0.117975,-5.296139,-0.055973,-1.038627,-15.001571,77.526083,65.592644,-15.201591,0.000000,0.000000,
136762064,77.054792,77.054792,34.163223,2,-0.286865,0.043945,0.084717,0.953186,-0.091286,0.211282,-5.997960,-0.020919,-1.252542,-15.668784,78.053702,65.390066,-15.508010,0.000000,0.000000,
136771817,77.469404,77.469404,34.163223,2,-0.269043,0.041809,0.086426,0.958313,-0.241523,0.040641,-5.243724,0.051144,-0.901089,-14.971920,78.581349,65.176614,-15.156408,0.000000,0.000000,
136782918,78.389875,78.389875,34.158693,3,-0.251099,0.039673,0.088135,0.963135,-0.097490,-0.414250,-5.674990,-0.299102,-0.683549,-15.444250,79.268036,64.983300,-15.345195,0.000000,0.000000,
136792193,78.895185,78.895185,34.154164,3,-0.233154,0.037537,0.089783,0.967590,-0.352440,-0.145554,-5.638211,0.071538,-0.797111,-15.399619,79.800221,64.796680,-15.380892,0.045000,0.045000,
136801947,79.428144,79.428144,34.158693,3,-0.215149,0.035278,0.091309,0.971680,-0.211841,-0.246703,-5.268865,-0.073300,-0.710432,-15.027853,80.361870,64.607129,-15.149346,0.095000,0.075000,
136812630,80.050764,80.050764,34.158693,3,-0.197144,0.033081,0.092651,0.975403,0.079575,0.183485,-5.883650,-0.165382,-1.339769,-15.530008,80.992889,64.405582,-15.399012,0.150000,0.108000,
136822288,80.375349,80.375349,34.163223,3,-0.179016,0.030823,0.093872,0.978882,0.102216,0.098922,-5.230575,-0.199743,-1.148169,-14.902509,81.498545,64.189818,-15.073374,0.195000,0.135000,
136833017,81.296583,81.296583,34.158693,3,-0.160889,0.028625,0.094788,0.981995,0.107700,-0.257076,-5.684262,-0.329371,-0.909048,-15.410356,82.148491,64.001235,-15.294391,0.250000,0.168000,
136842532,81.503980,81.503980,34.158693,3,-0.142883,0.026367,0.095520,0.984741,-0.079516,-0.088365,-5.686999,-0.095569,-1.009840,-15.399494,82.635978,63.779199,-15.363327,0.300000,0.198000,
136852226,82.243452,82.243452,34.163223,3,-0.124939,0.024170,0.096130,0.987183,0.170344,-0.569238,-5.034830,-0.430051,-0.488478,-14.830414,83.180063,63.590022,-15.013808,0.345000,0.225000,
136863161,83.047590,83.047590,34.154164,3,-0.106934,0.022034,0.096558,0.989319,0.231334,0.086735,-5.761610,-0.337667,-1.265275,-15.418645,83.849661,63.406349,-15.279328,0.400000,0.258000,
136872329,83.904951,83.904951,34.163223,3,-0.089111,0.019958,0.096863,0.991089,0.109010,-0.015634,-5.044550,-0.228097,-0.998337,-14.742624,84.440735,63.277910,-14.927320,0.450000,0.288000,
136882213,84.410535,84.410535,34.158693,3,-0.071350,0.017944,0.096924,0.992554,-0.035825,-0.412694,-5.593535,-0.150885,-0.686173,-15.365058,85.059751,63.122609,-15.214419,0.495000,0.315000,
136892959,84.708692,84.708692,34.154164,3,-0.053589,0.015930,0.096741,0.993713,-0.678880,0.561218,-5.921311,0.608951,-1.633148,-15.525977,85.671396,62.915567,-15.418762,0.550000,0.348000,
136902472,84.916181,84.916181,34.154164,3,-0.035706,0.013977,0.096375,0.994629,0.145050,0.048750,-5.705957,-0.260517,-1.157234,-15.389376,86.127731,62.681200,-15.399492,0.600000,0.378000,
136913388,86.072401,86.072401,34.158693,3,-0.017822,0.012207,0.095886,0.995178,0.362271,0.584685,-6.469641,-0.476345,-1.829573,-16.029263,86.800609,62.500089,-15.812540,0.650000,0.408000,
136922830,86.668836,86.668836,34.149634,3,0.000061,0.010437,0.095337,0.995422,-0.073573,0.180247,-6.057503,-0.055527,-1.326731,-15.713600,87.365344,62.336316,-15.747649,0.700000,0.438000,
136932340,87.020734,87.020734,34.163223,3,0.017761,0.008728,0.094666,0.995300,-0.073111,1.235356,-7.074908,-0.122541,-2.545140,-16.512000,87.892850,62.139365,-16.248964,0.750000,0.468000,
136943417,87.346082,87.346082,34.167752,3,0.035278,0.007019,0.093933,0.994934,-0.519236,0.315349,-6.733973,0.355045,-1.608515,-16.361773,88.477731,61.895572,-16.322954,0.781250,0.498000,
136952893,88.565168,88.565168,34.158693,3,0.052551,0.005371,0.093201,0.994263,-1.103680,0.406886,-7.168407,0.899886,-1.839379,-16.769273,89.079864,61.746725,-16.615680,0.781250,0.528000,
136962633,88.890027,88.890027,34.163223,3,0.069702,0.003784,0.092407,0.993286,-0.712497,1.452143,-7.667057,0.351151,-2.919800,-17.061646,89.644896,61.558606,-16.908176,0.781250,0.558000,
136973470,89.694166,89.694166,34.154164,3,0.086548,0.002319,0.091675,0.992004,-1.199800,0.590513,-7.375813,0.928831,-2.124052,-16.934166,90.320242,61.380760,-16.925222,0.781250,0.588000,
136982788,90.109815,90.109815,34.154164,3,0.103149,0.000671,0.091125,0.990479,-0.227937,0.775996,-8.210393,-0.099621,-2.275322,-17.732481,90.851957,61.190653,-17.454679,0.781250,0.618000,
136992494,90.524976,90.524976,34.154164,3,0.119507,-0.001160,0.090698,0.988708,-1.103517,0.790706,-7.695152,0.739514,-2.403861,-17.200744,91.383854,60.986112,-17.288132,0.781250,0.648000,
137003615,90.967786,90.967786,34.163223,3,0.135681,-0.003113,0.090515,0.986633,-0.126074,0.699531,-8.971752,-0.231211,-2.308277,-18.496720,91.982945,60.733417,-18.080809,0.765625,0.678000,
137013059,90.850416,90.850416,34.158693,3,0.151794,-0.005371,0.090515,0.984253,-0.263674,0.934198,-8.664064,-0.172313,-2.513473,-18.147622,92.343478,60.429614,-18.124635,0.750000,0.708000,
137023918,91.889966,91.889966,34.158693,3,0.167603,-0.007812,0.090698,0.981628,-1.317505,0.843133,-8.494301,0.844637,-2.750924,-17.947441,92.913644,60.182340,-18.008420,0.734375,0.734375,
137033181,92.187818,92.187818,34.154164,3,0.183167,-0.010376,0.090942,0.978821,0.005306,0.615856,-9.157384,-0.343590,-2.237122,-18.699471,93.334264,59.923816,-18.461663,0.718750,0.718750,
137042903,92.305707,92.305707,34.158693,3,0.198669,-0.013000,0.091248,0.975708,-0.715033,0.615327,-8.409157,0.328595,-2.379546,-17.921215,93.723418,59.631122,-18.107204,0.687500,0.688750,
137053749,92.513318,92.513318,34.158693,3,0.214294,-0.015625,0.091553,0.972351,0.365960,0.242626,-8.984680,-0.511080,-1.724661,-18.612650,94.142384,59.290827,-18.438715,0.671875,0.671875,
137062984,93.551984,93.551984,34.158693,3,0.230164,-0.018311,0.091858,0.968628,-0.195646,-0.586266,-8.566428,0.381002,-1.171418,-18.301825,94.578565,59.053121,-18.348936,0.656250,0.656250,
137072660,93.967786,93.967786,34.158693,3,0.245667,-0.021057,0.092102,0.964722,-0.043208,0.754336,-8.263965,-0.359362,-2.226728,-17.791169,95.034823,58.811006,-17.983116,0.640625,0.640625,
137083673,94.799451,94.799451,34.158693,3,0.260742,-0.023743,0.092224,0.960693,0.837479,1.172597,-8.868588,-1.332557,-2.266772,-18.389093,95.637296,58.581857,-18.249385,0.625000,0.625000,
137093186,95.306104,95.306104,34.154164,3,0.276001,-0.026428,0.092346,0.956360,1.166904,0.711913,-8.183492,-1.370460,-1.555198,-17.834621,96.131752,58.373825,-17.977355,0.625000,0.625000,
137104014,96.345563,96.345563,34.154164,3,0.291382,-0.029053,0.092407,0.951660,0.919014,1.213871,-8.775659,-1.424597,-2.186698,-18.319874,96.802796,58.200163,-18.202002,0.625000,0.625000,
137113490,95.748578,95.748578,34.163223,3,0.307251,-0.031555,0.092407,0.946594,0.610455,0.742143,-7.805568,-0.907923,-1.758777,-17.408428,97.156013,57.912390,-17.681526,0.593750,0.595000,
137123065,96.788099,96.788099,34.163223,3,0.323425,-0.033997,0.092346,0.941101,0.195860,1.138595,-7.830948,-0.824204,-2.303901,-17.328937,97.640851,57.704077,-17.450275,0.593750,0.593750,
137134127,97.592328,97.592328,34.154164,3,0.339600,-0.036133,0.092163,0.935364,0.866626,1.399412,-7.990361,-1.524348,-2.092747,-17.539581,98.269007,57.504550,-17.508848,0.593750,0.593750,
137143528,97.682630,97.682630,34.149634,3,0.355591,-0.038025,0.091980,0.929321,1.239701,0.406269,-7.236220,-1.153345,-0.922286,-17.006616,98.699009,57.276450,-17.179453,0.578125,0.578125,
137153263,97.682630,97.682630,34.149634,3,0.371460,-0.039734,0.091797,0.923035,1.326280,1.006533,-7.794851,-1.609196,-1.370173,-17.490501,99.065435,56.989218,-17.383464,0.546875,0.548125,
137164185,98.839765,98.839765,34.154164,3,0.387390,-0.041077,0.091675,0.916443,0.370498,0.329545,-6.831804,-0.466210,-1.335687,-16.499868,99.644648,56.782815,-16.803942,0.546875,0.546875,
137173637,99.581525,99.581525,34.158693,3,0.403259,-0.042175,0.091492,0.909546,0.864716,0.479344,-7.574629,-0.916005,-1.214456,-17.284745,100.168738,56.611911,-17.119286,0.531250,0.531250,
137183209,100.322797,100.322797,34.163223,3,0.418701,-0.043091,0.091248,0.902527,0.013992,1.006303,-7.136427,-0.767468,-2.060164,-16.663194,100.738728,56.470168,-16.820149,0.546875,0.546875,
137194226,100.739393,100.739393,34.163223,3,0.433960,-0.043762,0.091003,0.895264,0.179291,0.254288,-6.691391,-0.317336,-1.365125,-16.350345,101.360011,56.289889,-16.512019,0.546875,0.546875,
137203646,101.038038,101.038038,34.158693,3,0.449097,-0.044189,0.090820,0.887756,-0.251914,0.758995,-7.190708,-0.480503,-2.091404,-16.709874,101.829190,56.094935,-16.641787,0.531250,0.531250,
137214519,101.869733,101.869733,34.158693,3,0.464050,-0.044434,0.090637,0.880005,0.120100,0.112012,-6.428963,-0.197104,-1.255781,-16.103861,102.445777,55.924294,-16.288978,0.531250,0.531250,
137223718,102.285871,102.285871,34.158693,3,0.478760,-0.044556,0.090515,0.872131,-0.371122,0.738709,-7.234916,-0.486846,-2.146083,-16.740957,102.929536,55.751435,-16.585418,0.531250,0.531250,
137233435,103.444074,103.444074,34.163223,3,0.493103,-0.044617,0.090454,0.864075,0.348835,0.100391,-6.916902,-0.348440,-1.141316,-16.622237,103.566814,55.648895,-16.609564,0.546875,0.546875,
137244192,103.415876,103.415876,34.154164,3,0.506836,-0.044556,0.090454,0.856140,0.174902,-0.194468,-6.869944,-0.021421,-1.140146,-16.578646,104.136205,55.453332,-16.589286,0.546875,0.546875,
137253714,103.950086,103.950086,34.158693,3,0.520142,-0.044556,0.090454,0.848083,-0.926604,-0.320514,-6.950387,0.580010,-2.058841,-16.485030,104.628628,55.274840,-16.520909,0.531250,0.531250,
137263448,104.665052,104.665052,34.154164,3,0.533264,-0.044678,0.090454,0.839905,-0.418203,-0.806552,-6.487639,0.767235,-1.333142,-16.167085,105.172741,55.121652,-16.288846,0.531250,0.531250,
137274289,105.289167,105.289167,34.154164,3,0.546021,-0.044861,0.090454,0.831665,-0.772354,-0.015704,-6.997804,0.149754,-2.085808,-16.522290,105.791139,54.955901,-16.441954,0.546875,0.546875,
137283626,105.939985,105.939985,34.163223,3,0.558472,-0.045227,0.090332,0.823364,-0.487664,-0.806774,-6.509864,0.758719,-1.460104,-16.168975,106.331449,54.822297,-16.262915,0.546875,0.546875,
137294641,106.447187,106.447187,34.158693,3,0.570557,-0.045837,0.090210,0.815002,-0.833446,0.243528,-6.458968,-0.131057,-2.140687,-15.955257,106.956043,54.659644,-16.061131,0.546875,0.546875,
137303777,106.655591,106.655591,34.158693,3,0.582336,-0.046875,0.089966,0.806641,-0.102781,-0.026788,-6.935295,-0.148799,-1.482495,-16.576036,107.398412,54.472937,-16.398842,0.531250,0.531250,
137313654,107.279310,107.279310,34.158693,3,0.593872,-0.048096,0.089661,0.798096,-0.266643,-0.282687,-6.014915,0.168018,-1.383130,-15.667333,107.913410,54.304504,-15.919069,0.531250,0.531250,
137324405,107.903608,107.903608,34.158693,3,0.605103,-0.049500,0.089294,0.789551,-0.578567,0.216194,-6.758033,-0.261906,-1.966831,-16.294737,108.494445,54.128326,-16.165458,0.531250,0.531250,
137333890,108.438062,108.438062,34.163223,3,0.616028,-0.051208,0.088867,0.781006,-0.342220,-0.392271,-6.515519,0.268964,-1.561679,-16.147884,108.996565,53.968636,-16.153932,0.531250,0.531250,
137343627,109.062421,109.062421,34.163223,3,0.626831,-0.053040,0.088379,0.772278,-0.225497,-0.224934,-6.527620,0.072265,-1.496362,-16.159291,109.533621,53.818836,-16.157447,0.531250,0.531250,
137354763,109.686811,109.686811,34.163223,3,0.637268,-0.055054,0.087769,0.763611,-0.558428,0.615603,-6.124096,-0.679568,-1.896226,-15.643810,110.160693,53.661847,-15.820568,0.546875,0.546875,
137364140,110.492048,110.492048,34.154164,3,0.647583,-0.057129,0.087097,0.754822,-0.069400,-0.074728,-5.963872,-0.077185,-1.283473,-15.627190,110.725287,53.554011,-15.693736,0.546875,0.546875,
137375017,110.194196,110.194196,34.158693,3,0.657654,-0.059448,0.086304,0.745972,-0.552707,0.735426,-6.517714,-0.825631,-1.977206,-16.030112,111.207319,53.318777,-15.914357,0.531250,0.531250,
137384338,111.533033,111.533033,34.154164,3,0.667419,-0.061890,0.085449,0.737183,0.433565,0.103271,-5.873204,-0.285488,-0.814864,-15.624579,111.764669,53.211256,-15.724299,0.546875,0.546875,
137393978,111.650648,111.650648,34.158693,3,0.676880,-0.064331,0.084534,0.728394,-0.351826,-0.019100,-6.180533,-0.085911,-1.641529,-15.769547,112.255542,53.046143,-15.753976,0.546875,0.546875,
137404949,112.275709,112.275709,34.158693,3,0.686157,-0.066833,0.083679,0.719543,0.018591,0.291374,-5.932931,-0.403621,-1.262156,-15.595382,112.840357,52.877274,-15.649959,0.546875,0.546875,
137414392,112.483716,112.483716,34.158693,3,0.695251,-0.069275,0.082764,0.710632,0.224822,0.330299,-5.924955,-0.442706,-1.056976,-15.625492,113.272168,52.688295,-15.633914,0.531250,0.531250,
137423967,113.080610,113.080610,34.149634,3,0.704163,-0.071716,0.081787,0.701660,-0.194532,0.951620,-6.064474,-1.045120,-1.499017,-15.666576,113.740077,52.516313,-15.655336,0.531250,0.531250,
137435067,113.553144,113.553144,34.167752,3,0.712952,-0.074036,0.080688,0.692627,0.197400,0.212792,-5.878937,-0.281736,-1.082402,-15.583935,114.287039,52.322027,-15.608507,0.515625,0.515625,
137444579,114.150098,114.150098,34.158693,3,0.721497,-0.076355,0.079529,0.683594,0.227117,0.903772,-6.368147,-0.952739,-1.131508,-16.061017,114.758321,52.153167,-15.905295,0.515625,0.515625,
137455322,114.983381,114.983381,34.158693,3,0.729919,-0.078552,0.078369,0.674500,-0.350541,0.341243,-5.528286,-0.406497,-1.533180,-15.119274,115.359932,52.016363,-15.389767,0.515625,0.515625,
137464586,115.607099,115.607099,34.158693,3,0.738220,-0.080627,0.077148,0.665222,0.312057,0.719307,-6.200792,-0.724370,-1.007049,-15.929443,115.887408,51.897343,-15.743723,0.531250,0.531250,
137474315,115.399030,115.399030,34.158693,3,0.746460,-0.082642,0.075867,0.655884,-0.505002,0.760516,-6.267726,-0.845811,-1.791483,-15.812292,116.300137,51.687601,-15.788697,0.515625,0.515625,
137485142,116.739576,116.739576,34.154164,3,0.754700,-0.084412,0.074585,0.646301,-0.189992,0.471722,-5.410838,-0.510575,-1.325889,-15.044056,116.941205,51.574486,-15.300309,0.531250,0.531250,
137494490,116.440504,116.440504,34.158693,3,0.762939,-0.086060,0.073303,0.636536,0.829071,1.068453,-5.967100,-0.914319,-0.359134,-15.839181,117.328828,51.368254,-15.653740,0.515625,0.515625,
137504158,117.155805,117.155805,34.154164,3,0.770935,-0.087524,0.072144,0.626770,-0.115650,0.647115,-5.513428,-0.660568,-1.230906,-15.175490,117.792382,51.201794,-15.340072,0.500000,0.500000,
137515303,117.808393,117.808393,34.163223,3,0.778687,-0.088928,0.071045,0.617004,0.191059,0.842947,-5.994096,-0.774495,-0.989110,-15.727206,118.365032,51.028528,-15.593981,0.500000,0.500000,
137524788,118.406141,118.406141,34.154164,3,0.786499,-0.090210,0.069946,0.606934,0.195307,0.895223,-5.863946,-0.811569,-0.929537,-15.609480,118.856036,50.885239,-15.604146,0.500000,0.500000,
137535560,119.031080,119.031080,34.154164,3,0.794128,-0.091370,0.068909,0.596863,0.272108,0.602864,-5.659607,-0.500128,-0.871339,-15.404797,119.436082,50.739318,-15.473398,0.515625,0.515625,
137544854,119.864789,119.864789,34.154164,3,0.801575,-0.092346,0.067871,0.586792,-0.234019,1.011083,-6.064524,-1.036380,-1.298561,-15.721364,119.987277,50.642961,-15.636029,0.515625,0.515625,
137554578,119.892499,119.892499,34.163223,3,0.808899,-0.093201,0.067017,0.576599,-0.458992,0.354021,-4.966789,-0.490561,-1.447785,-14.559847,120.461342,50.490518,-14.930195,0.515625,0.515625,
137565392,119.712049,119.712049,34.172282,3,0.816101,-0.094055,0.066162,0.566406,-0.052022,0.666984,-5.946900,-0.643340,-1.184252,-15.628791,120.866079,50.236456,-15.388385,0.500000,0.500000,
137574724,120.371625,120.371625,34.149634,3,0.823181,-0.094727,0.065369,0.555969,-0.028457,0.612742,-5.263389,-0.588060,-1.014559,-14.966559,121.241648,50.039739,-15.111725,0.468750,0.470000,
137584550,120.726240,120.726240,34.163223,3,0.830200,-0.095337,0.064575,0.545471,0.043455,0.366793,-5.196956,-0.335412,-1.008419,-14.900352,121.636153,49.834540,-14.973094,0.453125,0.453125,
137595580,121.858259,121.858259,34.158693,3,0.837097,-0.095825,0.063843,0.534790,-0.236526,0.506842,-5.619811,-0.582025,-1.289493,-15.267157,122.226485,49.691536,-15.165960,0.468750,0.468750,
137605054,121.767744,121.767744,34.163223,3,0.843811,-0.096191,0.063171,0.524109,0.237105,0.311221,-4.993269,-0.202400,-0.803242,-14.738878,122.610681,49.498824,-14.885853,0.453125,0.453125,
137615766,122.782148,122.782148,34.154164,3,0.850403,-0.096558,0.062622,0.513367,-0.235515,0.398483,-5.602345,-0.497754,-1.310798,-15.242896,123.172146,49.355303,-15.120026,0.453125,0.453125,
137625193,123.317396,123.317396,34.158693,3,0.856873,-0.096802,0.062073,0.502563,0.198013,0.681711,-5.234228,-0.545577,-0.709106,-15.004231,123.663968,49.230758,-15.044079,0.453125,0.453125,
137634667,123.226880,123.226880,34.163223,3,0.863159,-0.097107,0.061646,0.491638,-0.037152,0.025251,-5.009046,-0.092190,-1.173334,-14.668334,124.047917,49.041760,-14.797641,0.437500,0.437500,
137645714,124.032117,124.032117,34.154164,3,0.869324,-0.097351,0.061218,0.480652,-0.039486,0.122851,-5.066441,-0.188536,-1.125531,-14.737053,124.585826,48.877136,-14.757903,0.437500,0.437500,
137655095,124.359693,124.359693,34.158693,3,0.875305,-0.097595,0.060852,0.469727,0.263998,-0.169771,-4.834461,0.217409,-0.984053,-14.537929,125.001357,48.714656,-14.613630,0.437500,0.437500,
137664840,125.074995,125.074995,34.154164,3,0.881104,-0.097839,0.060547,0.458740,-0.205684,0.286039,-5.316363,-0.441007,-1.222639,-14.966460,125.489140,48.577216,-14.845040,0.437500,0.437500,
137675811,125.221021,125.221021,34.167752,3,0.886719,-0.098145,0.060120,0.447754,0.192717,-0.455779,-4.367481,0.402437,-1.118250,-14.031934,125.971056,48.392438,-14.311750,0.421875,0.421875,
137685279,125.728101,125.728101,34.163223,3,0.892273,-0.098572,0.059631,0.436584,-0.202425,-0.220839,-4.990447,-0.051779,-1.432421,-14.590145,126.383057,48.226041,-14.494342,0.421875,0.421875,
137695917,126.444044,126.444044,34.158693,3,0.897644,-0.099060,0.059143,0.425415,-0.095430,-0.080372,-4.428608,-0.099322,-1.136785,-14.081977,126.906730,48.083103,-14.223885,0.421875,0.421875,
137705374,126.534589,126.534589,34.154164,3,0.902832,-0.099609,0.058533,0.414124,-0.352773,0.305704,-4.448791,-0.561697,-1.089105,-14.103559,127.291119,47.906672,-14.144968,0.406250,0.406250,
137714957,127.278333,127.278333,34.158693,3,0.907959,-0.100281,0.057861,0.402710,-0.072199,0.295669,-4.855613,-0.380933,-0.975344,-14.553423,127.747130,47.765721,-14.412861,0.406250,0.406250,
137725977,128.411054,128.411054,34.154164,3,0.913025,-0.101135,0.057068,0.391052,-0.228537,-0.096903,-4.304717,-0.197708,-1.220075,-13.935841,128.397013,47.687263,-14.099996,0.437500,0.437500,
137735207,128.438795,128.438795,34.163223,3,0.917786,-0.102051,0.056274,0.379578,-0.327168,0.128323,-4.868107,-0.443618,-1.262766,-14.500009,128.844355,47.558087,-14.362352,0.437500,0.437500,
137745085,128.856000,128.856000,34.163223,3,0.922424,-0.102966,0.055481,0.368042,0.368792,0.022403,-4.618461,0.125242,-0.808296,-14.358080,129.315613,47.417584,-14.359550,0.437500,0.437500,
137755865,129.871107,129.871107,34.154164,3,0.926880,-0.103943,0.054688,0.356506,-0.458630,0.020088,-4.419102,-0.469001,-1.311584,-14.019235,129.929998,47.329510,-14.136346,0.453125,0.453125,
137765398,129.690504,129.690504,34.163223,3,0.931213,-0.104980,0.053833,0.344910,0.171085,0.184380,-4.928966,-0.128790,-0.905963,-14.652525,130.335644,47.162012,-14.474893,0.437500,0.437500,
137776132,130.434980,130.434980,34.167752,3,0.935364,-0.106079,0.052979,0.333252,0.181904,-0.241939,-4.085612,0.180119,-1.036841,-13.765444,130.859725,47.025384,-14.009587,0.453125,0.453125,
137785622,130.824018,130.824018,34.158693,3,0.939331,-0.107239,0.052002,0.321716,-0.257949,-0.231934,-4.606058,-0.191444,-1.420401,-14.190032,131.298660,46.886528,-14.127936,0.453125,0.453125,
137795317,131.359144,131.359144,34.163223,3,0.943054,-0.108459,0.051086,0.310181,-0.068114,-0.035874,-4.198718,-0.155742,-1.065016,-13.860984,131.763908,46.759077,-13.952850,0.453125,0.453125,
137806266,131.658124,131.658124,34.158693,3,0.946716,-0.109741,0.050049,0.298706,0.200108,-0.106958,-4.686607,0.088929,-1.092747,-14.367541,132.255183,46.589907,-14.224834,0.453125,0.453125,
137815557,131.984876,131.984876,34.163223,3,0.950134,-0.111084,0.049072,0.287170,-0.086159,0.319204,-4.687080,-0.393350,-0.915551,-14.390871,132.636790,46.424810,-14.333733,0.437500,0.437500,
137825327,131.984876,131.984876,34.163223,3,0.953430,-0.112427,0.048035,0.275696,0.179210,0.083355,-4.128082,-0.019458,-0.837979,-13.849678,132.967690,46.215123,-14.016259,0.406250,0.410500,
137836090,132.582899,132.582899,34.154164,3,0.956543,-0.113831,0.046936,0.264221,-0.349861,0.235439,-4.945818,-0.566441,-1.176303,-14.585904,133.392181,46.014613,-14.389873,0.390625,0.390625,
137845642,132.937452,132.937452,34.167752,3,0.959534,-0.115295,0.045837,0.252747,0.261641,-0.059510,-4.316710,0.126286,-0.984350,-14.011219,133.745926,45.828430,-14.141527,0.359375,0.360625,
137856492,133.772260,133.772260,34.167752,3,0.962402,-0.116760,0.044678,0.241211,-0.077697,0.324636,-4.438880,-0.357982,-0.855294,-14.160253,134.247263,45.677805,-14.153809,0.359375,0.359375,
137865916,133.952924,133.952924,34.158693,3,0.965027,-0.118225,0.043457,0.229797,0.197390,0.337236,-4.716542,-0.120306,-0.795288,-14.464574,134.621933,45.507233,-14.357631,0.343750,0.343750,
137875432,134.697736,134.697736,34.163223,3,0.967590,-0.119751,0.042236,0.218323,-0.295253,0.337096,-3.910891,-0.530199,-0.808092,-13.622427,135.068584,45.386345,-13.875433,0.343750,0.343750,
137886534,134.877912,134.877912,34.154164,3,0.969910,-0.121277,0.040955,0.207031,-0.070053,0.812355,-4.735108,-0.537429,-0.502831,-14.549346,135.535832,45.203546,-14.317432,0.343750,0.343750,
137895876,135.622266,135.622266,34.158693,3,0.972168,-0.122803,0.039673,0.195435,-0.590674,0.215111,-3.666079,-0.737230,-0.969825,-13.321689,135.973780,45.089532,-13.664355,0.343750,0.343750,
137905594,136.157636,136.157636,34.163223,3,0.974304,-0.124207,0.038330,0.183899,-0.046381,0.391521,-4.089419,-0.304086,-0.714185,-13.835193,136.445716,44.976071,-13.776402,0.343750,0.343750,
137916632,136.276563,136.276563,34.167752,3,0.976318,-0.125488,0.037048,0.172424,0.043777,0.606796,-3.724741,-0.278091,-0.402312,-13.546820,136.909666,44.807222,-13.625827,0.343750,0.343750,
137925838,137.111646,137.111646,34.167752,3,0.978088,-0.126709,0.035950,0.161072,0.156590,0.282472,-3.618980,-0.057140,-0.640218,-13.375201,137.359438,44.707617,-13.461448,0.359375,0.359375,
137936651,137.619306,137.619306,34.163223,3,0.979797,-0.127930,0.034851,0.149841,0.276867,0.720459,-4.358437,-0.088359,-0.401467,-14.210651,137.890671,44.583853,-13.952826,0.359375,0.359375,
137945999,138.126508,138.126508,34.158693,3,0.981323,-0.129028,0.033875,0.138855,0.276375,0.114842,-3.578900,0.120351,-0.760432,-13.306529,138.351061,44.486979,-13.528939,0.375000,0.375000,
137955578,138.544111,138.544111,34.158693,3,0.982666,-0.129883,0.032898,0.128052,0.502368,0.441964,-4.396448,0.222216,-0.626499,-14.197965,138.812654,44.372959,-13.967731,0.375000,0.375000,
137966708,138.781476,138.781476,34.167752,3,0.983948,-0.130676,0.031799,0.117310,0.330740,0.177508,-3.417056,0.167370,-0.672665,-13.170856,139.299903,44.222422,-13.445086,0.375000,0.375000,
137976190,139.886640,139.886640,34.154164,3,0.985107,-0.131409,0.030701,0.106567,0.293528,0.374402,-3.909571,0.071407,-0.629151,-13.683253,139.828502,44.160499,-13.601290,0.406250,0.402000,
137985917,139.678083,139.678083,34.154164,3,0.986145,-0.132019,0.029480,0.095886,0.362585,0.724779,-4.147242,0.069990,-0.358428,-14.006754,140.229211,44.007036,-13.867222,0.406250,0.406250,
137996765,140.033887,140.033887,34.167752,3,0.987122,-0.132629,0.028137,0.085083,-0.081769,0.446472,-3.395621,-0.276422,-0.494348,-13.179254,140.669272,43.841592,-13.416006,0.390625,0.390625,
138006012,141.139722,141.139722,34.154164,3,0.987976,-0.133118,0.026672,0.074219,0.144679,0.185638,-3.978343,-0.017080,-0.864325,-13.691774,141.162183,43.769263,-13.596871,0.421875,0.420625,
138016787,140.868757,140.868757,34.167752,3,0.988708,-0.133484,0.025269,0.063599,-0.185503,0.572091,-3.545101,-0.381901,-0.428338,-13.350931,141.578081,43.591932,-13.435568,0.406250,0.406250,
138026105,140.750318,140.750318,34.163223,3,0.989319,-0.133728,0.023743,0.053101,-0.178670,0.107951,-3.971394,-0.329395,-0.974789,-13.643594,141.828649,43.369143,-13.572009,0.361250,0.379250,
138035891,142.002973,142.002973,34.163223,3,0.989868,-0.133850,0.022217,0.042480,0.066825,0.602577,-3.912358,-0.117986,-0.458938,-13.731667,142.285022,43.254607,-13.676723,0.359375,0.359375,
138046999,141.974134,141.974134,34.154164,3,0.990295,-0.133911,0.020691,0.031677,-0.504830,0.288880,-3.443435,-0.639314,-0.675062,-13.166251,142.706481,43.072856,-13.341922,0.343750,0.343750,
138056476,142.183301,142.183301,34.154164,3,0.990601,-0.133850,0.019226,0.020752,0.137632,0.161295,-4.187266,-0.013906,-0.954208,-13.880646,143.016023,42.880465,-13.695256,0.312500,0.313750,
138066172,143.137830,143.137830,34.158693,3,0.990784,-0.133789,0.017761,0.009888,-0.215255,0.221593,-3.306076,-0.328709,-0.670928,-13.031993,143.454013,42.768086,-13.260242,0.328125,0.328125,
138076906,143.256299,143.256299,34.163223,3,0.990906,-0.133606,0.016357,-0.000977,0.100563,-0.230772,-3.592596,-0.021613,-1.180619,-13.207940,143.875301,42.603803,-13.225939,0.312500,0.312500,
138086239,144.063123,144.063123,34.154164,3,0.990906,-0.133362,0.015076,-0.011963,0.078374,0.154141,-3.624512,-0.040200,-0.814490,-13.338789,144.307509,42.500942,-13.299953,0.328125,0.328125,
138097131,144.390272,144.390272,34.158693,3,0.990723,-0.133057,0.013794,-0.023071,0.092079,-0.223542,-3.265649,-0.034460,-1.078595,-12.892172,144.785182,42.369764,-13.032502,0.328125,0.328125,
138106360,144.898298,144.898298,34.154164,3,0.990479,-0.132751,0.012634,-0.034424,-0.153406,0.379057,-3.776219,-0.263446,-0.618667,-13.536504,145.196798,42.257708,-13.363061,0.343750,0.343750,
138116273,145.017316,145.017316,34.158693,3,0.990051,-0.132507,0.011536,-0.045776,-0.187888,0.028288,-3.101257,-0.298007,-0.765921,-12.793333,145.581498,42.110415,-12.989395,0.328125,0.328125,
138127231,145.762403,145.762403,34.163223,3,0.989502,-0.132263,0.010437,-0.057007,0.075197,-0.026274,-3.737631,-0.067306,-1.015042,-13.402552,146.076003,41.984276,-13.260371,0.343750,0.343750,
138136721,145.553174,145.553174,34.163223,3,0.988831,-0.132080,0.009399,-0.067993,0.257307,-0.070241,-3.008775,0.129078,-0.886837,-12.687850,146.375950,41.803550,-12.884875,0.312500,0.313750,
138146307,146.270521,146.270521,34.158693,3,0.988098,-0.132019,0.008423,-0.078857,0.030920,-0.171653,-3.613518,-0.130366,-1.107103,-13.244887,146.756318,41.664493,-13.120996,0.296875,0.296875,
138157311,146.716230,146.716230,34.167752,3,0.987183,-0.131958,0.007507,-0.089722,0.220802,0.117197,-3.481651,0.109193,-0.838659,-13.189347,147.206486,41.514841,-13.165825,0.296875,0.296875,
138166735,147.433118,147.433118,34.163223,3,0.986145,-0.131958,0.006653,-0.100525,0.293864,-0.280232,-3.111264,0.110063,-1.133454,-12.726529,147.639628,41.421295,-12.877704,0.312500,0.312500,
138177592,147.732038,147.732038,34.158693,3,0.984924,-0.132080,0.005737,-0.111450,0.047709,-0.233011,-3.703496,-0.148216,-1.192989,-13.313977,148.105847,41.287456,-13.163841,0.312500,0.312500,
138186788,148.449506,148.449506,34.154164,3,0.983582,-0.132263,0.004822,-0.122498,0.104263,-0.215721,-2.908241,-0.068435,-0.983457,-12.550301,148.549397,41.212168,-12.761438,0.343750,0.342500,
138196421,148.388166,148.388166,34.167752,3,0.982117,-0.132507,0.003845,-0.133545,0.090534,-0.383091,-3.328693,-0.153446,-1.245370,-12.913050,148.915612,41.069410,-12.860876,0.328125,0.328125,
138207308,149.166517,149.166517,34.149634,3,0.980530,-0.132874,0.002808,-0.144653,0.073608,0.054750,-3.200675,-0.052691,-0.805670,-12.904989,149.408946,40.957331,-12.889807,0.343750,0.343750,
138216840,148.687116,148.687116,34.163223,3,0.978760,-0.133362,0.001770,-0.155823,0.128493,-0.381309,-2.792122,-0.117468,-1.119983,-12.385751,149.663628,40.756254,-12.559216,0.296875,0.313750,
138226467,149.940229,149.940229,34.163223,3,0.976807,-0.134033,0.000732,-0.166931,0.257460,0.095557,-3.560155,0.114481,-0.929249,-13.248355,150.107117,40.660202,-13.011200,0.312500,0.312500,
138237425,149.940229,149.940229,34.163223,3,0.974792,-0.134705,-0.000366,-0.177917,0.180267,-0.029351,-2.960974,0.024094,-0.872893,-12.641551,150.520678,40.502613,-12.768760,0.312500,0.312500,
138246803,150.538770,150.538770,34.154164,3,0.972595,-0.135437,-0.001465,-0.188843,0.412781,-0.167374,-3.352457,0.166034,-1.194798,-12.960527,150.903321,40.383083,-12.894534,0.312500,0.312500,
138257785,151.075971,151.075971,34.158693,3,0.970337,-0.136292,-0.002563,-0.199707,0.071122,0.201801,-3.256984,-0.016220,-0.717888,-12.988279,151.378361,40.260145,-12.956017,0.312500,0.312500,
138266996,151.465772,151.465772,34.149634,3,0.967957,-0.137146,-0.003723,-0.210449,0.202709,-0.275366,-2.906160,-0.071327,-1.107170,-12.507776,151.765061,40.155279,-12.662029,0.328125,0.328125,
138276761,150.985731,150.985731,34.163223,3,0.965393,-0.138062,-0.004944,-0.221069,0.061287,0.423412,-3.520043,0.056235,-0.608870,-13.296798,152.010640,39.936656,-13.078358,0.278125,0.298125,
138287556,152.121046,152.121046,34.158693,3,0.962830,-0.138977,-0.006226,-0.231628,-0.016210,-0.042194,-2.680603,-0.168178,-0.761305,-12.364482,152.461739,39.815446,-12.610149,0.281250,0.281250,
138297104,152.538709,152.538709,34.158693,3,0.960083,-0.139893,-0.007507,-0.242065,0.211328,0.004874,-3.197023,0.019319,-0.973407,-12.857723,152.855715,39.701479,-12.772524,0.281250,0.281250,
138306743,152.567029,152.567029,34.167752,3,0.957275,-0.140869,-0.008850,-0.252441,-0.124582,0.268732,-2.945092,-0.134673,-0.524735,-12.710395,153.183773,39.546032,-12.731777,0.250000,0.251250,
138317836,153.374586,153.374586,34.158693,3,0.954285,-0.141785,-0.010254,-0.262817,0.100520,0.009801,-2.992596,-0.071027,-0.870052,-12.670604,153.657414,39.427072,-12.691655,0.265625,0.265625,
138327195,153.493696,153.493696,34.163223,3,0.951233,-0.142700,-0.011597,-0.273132,0.024066,0.520398,-3.162372,0.116607,-0.468735,-12.970341,153.995164,39.286610,-12.874437,0.250000,0.250000,
138338062,154.629835,154.629835,34.158693,3,0.948120,-0.143555,-0.013062,-0.283325,-0.148727,0.080390,-2.523887,-0.226846,-0.565512,-12.252073,154.540282,39.225645,-12.466245,0.296875,0.283000,
138347330,154.420423,154.420423,34.158693,3,0.944885,-0.144409,-0.014526,-0.293396,-0.136595,0.207900,-3.016230,-0.170852,-0.611457,-12.761986,154.880812,39.093351,-12.660213,0.296875,0.296875,
138357051,155.255933,155.255933,34.158693,3,0.941589,-0.145264,-0.016113,-0.303406,-0.149110,0.642235,-3.046721,0.070446,-0.286073,-12.900901,155.330436,39.010712,-12.818071,0.312500,0.312500,
138367850,154.928449,154.928449,34.154164,3,0.938171,-0.145996,-0.017639,-0.313354,-0.290670,-0.040911,-2.670224,-0.416763,-0.629193,-12.382106,155.675736,38.831234,-12.532137,0.281250,0.281250,
138377342,156.211683,156.211683,34.163223,3,0.934753,-0.146667,-0.019287,-0.323120,-0.148482,0.656119,-3.314004,0.086971,-0.374982,-13.157530,156.144072,38.767903,-12.942310,0.326250,0.308250,
138386983,155.674756,155.674756,34.158693,3,0.931213,-0.147278,-0.020874,-0.332764,-0.248344,0.079824,-2.566983,-0.295168,-0.532141,-12.310982,156.429446,38.595776,-12.528244,0.281250,0.281250,
138398110,156.601697,156.601697,34.154164,3,0.927612,-0.147827,-0.022339,-0.342285,0.070141,0.524622,-2.962458,0.214311,-0.533129,-12.750889,156.890360,38.473507,-12.674269,0.296875,0.296875,
138407420,157.019514,157.019514,34.154164,3,0.924011,-0.148193,-0.023743,-0.351624,-0.485132,0.284472,-2.293115,-0.315474,-0.154294,-12.135943,157.272239,38.375711,-12.321197,0.312500,0.312500,
138418325,156.958112,156.958112,34.167752,3,0.920349,-0.148376,-0.025085,-0.360962,0.190497,0.499667,-3.176909,0.284738,-0.704847,-12.934786,157.631091,38.199104,-12.723632,0.281250,0.282500,
138427581,157.556531,157.556531,34.158693,3,0.916626,-0.148438,-0.026367,-0.370178,-0.332875,0.462747,-2.700210,-0.093437,-0.254508,-12.550733,157.970166,38.074369,-12.610233,0.281250,0.281250,
138437323,158.183851,158.183851,34.158693,3,0.912903,-0.148376,-0.027527,-0.379272,0.120367,0.062180,-2.405975,-0.017370,-0.748651,-12.097455,158.380532,37.980853,-12.273917,0.296875,0.296875,
138448104,158.811231,158.811231,34.158693,3,0.908997,-0.148193,-0.028748,-0.388489,-0.109865,0.661894,-3.044932,0.204733,-0.378994,-12.884435,158.869878,37.891023,-12.674335,0.328125,0.328125,
138457567,158.212202,158.212202,34.167752,3,0.905029,-0.147949,-0.029846,-0.397705,-0.048650,0.041612,-2.471731,-0.159349,-0.661385,-12.173406,159.104755,37.700235,-12.345794,0.281250,0.298125,
138467300,159.020185,159.020185,34.158693,3,0.900940,-0.147583,-0.030945,-0.406982,0.121440,0.149291,-2.939238,0.005438,-0.854083,-12.625158,159.455253,37.567724,-12.529020,0.265625,0.271125,
138478149,159.258039,159.258039,34.167752,3,0.896729,-0.147095,-0.032104,-0.416138,-0.431573,-0.056108,-2.487103,-0.485271,-0.445141,-12.241242,159.825189,37.412462,-12.340276,0.250000,0.250000,
138487647,159.885999,159.885999,34.167752,3,0.892517,-0.146606,-0.033203,-0.425171,0.160178,-0.324097,-2.432950,-0.311102,-1.025892,-12.018257,160.191394,37.305426,-12.129074,0.265625,0.265625,
138498640,160.693586,160.693586,34.158693,3,0.888245,-0.145935,-0.034302,-0.434204,0.054505,0.210148,-2.880735,0.008871,-0.750959,-12.590143,160.694785,37.224431,-12.431473,0.296875,0.295625,
138507900,160.393751,160.393751,34.163223,3,0.883850,-0.145264,-0.035278,-0.443237,0.266599,-0.220066,-2.179193,-0.156204,-0.960015,-11.778695,160.982616,37.080724,-12.003337,0.281250,0.281250,
138517637,160.783887,160.783887,34.154164,3,0.879272,-0.144592,-0.036316,-0.452332,-0.077476,-0.063314,-2.752565,-0.276718,-0.771968,-12.435113,161.305862,36.936975,-12.286526,0.265625,0.265625,
138528345,162.039533,162.039533,34.154164,3,0.874512,-0.143921,-0.037231,-0.461609,0.013389,0.142505,-2.368248,-0.036406,-0.613508,-12.094804,161.838078,36.890688,-12.160779,0.315625,0.295625,
138537664,161.230787,161.230787,34.163223,3,0.869690,-0.143433,-0.038147,-0.470764,0.209573,-0.191681,-2.695934,-0.228682,-1.042577,-12.294320,162.067609,36.706167,-12.248367,0.265625,0.265625,
138547469,162.277418,162.277418,34.163223,3,0.864807,-0.143005,-0.039001,-0.479736,0.000346,0.193591,-2.744208,-0.031469,-0.693663,-12.462116,162.466169,36.607792,-12.388557,0.281250,0.281250,
138558566,162.576276,162.576276,34.158693,3,0.859924,-0.142639,-0.039856,-0.488464,0.207025,-0.240099,-2.201514,-0.251051,-0.920412,-11.810210,162.892321,36.488925,-12.009237,0.296875,0.296875,
138568021,163.532178,163.532178,34.163223,3,0.854919,-0.142334,-0.040710,-0.497253,-0.006120,0.090343,-2.944941,-0.144288,-0.791925,-12.633573,163.356584,36.443211,-12.418717,0.343750,0.326875,
138578848,162.457563,162.457563,34.154164,3,0.849792,-0.142090,-0.041565,-0.505981,-0.105780,-0.109251,-2.149953,-0.306657,-0.571832,-11.855078,163.582071,36.212024,-12.049048,0.288750,0.293875,
138588113,163.322614,163.322614,34.163223,3,0.844543,-0.141907,-0.042419,-0.514587,-0.046043,-0.145000,-2.416291,-0.328471,-0.710991,-12.090863,163.868454,36.069922,-12.076474,0.250000,0.266875,
138597705,164.159894,164.159894,34.163223,3,0.839355,-0.141785,-0.043213,-0.523010,-0.014685,0.345265,-2.592706,0.106691,-0.582827,-12.348332,164.268406,35.984682,-12.254776,0.281250,0.281250,
138608509,163.532178,163.532178,34.163223,3,0.834045,-0.141663,-0.043945,-0.531372,-0.033798,-0.156960,-2.059318,-0.320524,-0.622155,-11.745256,164.518681,35.774300,-11.920601,0.231250,0.251250,
138617862,164.877973,164.877973,34.158693,3,0.828674,-0.141602,-0.044739,-0.539673,-0.084196,0.358493,-2.902071,0.057630,-0.618738,-12.659886,164.919964,35.696939,-12.405473,0.234375,0.234375,
138628908,165.087049,165.087049,34.158693,3,0.823242,-0.141541,-0.045532,-0.547913,-0.233149,-0.009519,-2.132324,-0.274501,-0.406236,-11.891158,165.344860,35.584302,-12.068149,0.250000,0.250000,
138638308,165.505750,165.505750,34.158693,3,0.817749,-0.141479,-0.046265,-0.556030,0.052717,0.129722,-2.942041,-0.102806,-0.840434,-12.625442,165.708906,35.484019,-12.433659,0.265625,0.265625,
138647950,165.206830,165.206830,34.163223,3,0.812134,-0.141357,-0.047058,-0.564087,0.053512,0.539300,-2.298636,0.329922,-0.526738,-12.083522,165.956512,35.310225,-12.204017,0.218750,0.235625,
138658929,166.343214,166.343214,34.158693,3,0.806519,-0.141235,-0.047729,-0.572144,0.051886,-0.036510,-2.410517,-0.224900,-0.750498,-12.086813,166.415875,35.221305,-12.127145,0.250000,0.250000,
138668445,166.671583,166.671583,34.163223,3,0.800720,-0.141052,-0.048401,-0.580139,0.315802,0.857226,-2.629470,0.680657,-0.790466,-12.386018,166.798365,35.132892,-12.296930,0.281250,0.277000,
138678048,167.360944,167.360944,34.149634,3,0.794983,-0.140869,-0.048950,-0.588013,0.168628,0.127267,-2.135262,-0.015015,-0.729934,-11.824387,167.240533,35.083635,-11.987002,0.328125,0.307000,
138689067,167.479688,167.479688,34.154164,3,0.789246,-0.140686,-0.049500,-0.595703,0.470558,0.775880,-2.705216,0.626516,-1.013179,-12.398072,167.671137,34.974315,-12.256609,0.359375,0.340000,
138698488,167.389326,167.389326,34.158693,3,0.783447,-0.140442,-0.050110,-0.603271,0.459163,0.189422,-1.955367,0.122025,-0.934688,-11.589635,167.947361,34.832811,-11.819162,0.328125,0.328125,
138709362,167.897962,167.897962,34.154164,3,0.777588,-0.140259,-0.050659,-0.610779,0.329224,0.350535,-2.293287,0.205968,-0.878044,-11.968797,168.316165,34.697083,-11.917303,0.328125,0.328125,
138718559,168.555372,168.555372,34.163223,3,0.771729,-0.140015,-0.051453,-0.618225,0.443614,0.615471,-2.362784,0.473272,-0.964079,-12.043435,168.679566,34.613981,-12.000028,0.343750,0.343750,
138728279,168.944776,168.944776,34.154164,3,0.765869,-0.139709,-0.052307,-0.625427,0.518859,0.169894,-1.933915,0.085352,-1.000274,-11.546398,169.065126,34.531922,-11.702505,0.375000,0.370750,
138739119,169.572797,169.572797,34.154164,3,0.760193,-0.139404,-0.053406,-0.632324,0.599492,0.607786,-2.684654,0.450665,-1.222797,-12.293713,169.533764,34.456392,-12.090258,0.430000,0.403750,
138748554,169.092969,169.092969,34.167752,3,0.754395,-0.139099,-0.054565,-0.639160,0.696460,0.371583,-2.171122,0.276826,-1.213806,-11.742446,169.775806,34.294961,-11.862141,0.390625,0.390625,
138758170,169.602247,169.602247,34.163223,3,0.748596,-0.138733,-0.055969,-0.645996,0.773551,0.532493,-2.482078,0.404356,-1.371394,-12.035401,170.072541,34.159480,-11.975777,0.375000,0.375000,
138769301,170.320173,170.320173,34.158693,3,0.742615,-0.138306,-0.057434,-0.652771,0.619437,0.954754,-2.636661,0.769841,-1.231461,-12.275307,170.498366,34.050971,-12.172228,0.390625,0.390625,
138778516,170.948286,170.948286,34.158693,3,0.736633,-0.137939,-0.059082,-0.659424,0.642130,-0.031565,-2.082780,-0.156901,-1.208564,-11.611023,170.895941,33.996230,-11.804149,0.440625,0.420625,
138789514,170.948286,170.948286,34.158693,3,0.730652,-0.137512,-0.060791,-0.666016,0.489346,0.725716,-2.735410,0.506758,-1.191440,-12.366433,171.278864,33.866424,-12.172933,0.453125,0.450625,
138798769,171.067090,171.067090,34.163223,3,0.724548,-0.137146,-0.062683,-0.672485,0.453076,0.294522,-2.121753,0.130821,-1.016950,-11.740028,171.552149,33.733447,-11.889005,0.437500,0.437500,
138808516,171.666334,171.666334,34.154164,3,0.718384,-0.136780,-0.064819,-0.679016,0.503169,0.199462,-2.389734,0.009002,-1.156573,-11.959480,171.901750,33.629878,-11.935227,0.437500,0.437500,
138819345,171.486555,171.486555,34.163223,3,0.712158,-0.136292,-0.067139,-0.685364,0.720449,0.500366,-2.603558,0.296382,-1.422200,-12.133774,172.187464,33.451504,-12.065450,0.390625,0.407500,
138828705,171.605359,171.605359,34.167752,3,0.705994,-0.135803,-0.069519,-0.691589,0.356794,-0.130023,-2.114624,-0.314294,-0.955862,-11.706167,172.391067,33.275015,-11.829810,0.340625,0.377500,
138838443,172.623609,172.623609,34.158693,3,0.699768,-0.135315,-0.072083,-0.697693,0.500346,0.561545,-3.006265,0.302522,-1.355591,-12.570751,172.757993,33.179024,-12.315769,0.359375,0.359375,
138849578,172.742414,172.742414,34.163223,3,0.693542,-0.134705,-0.074707,-0.703796,0.538380,-0.008626,-1.957005,-0.178631,-1.090837,-11.509286,173.123843,33.048713,-11.786822,0.359375,0.359375,
138858772,173.161970,173.161970,34.163223,3,0.687134,-0.134094,-0.077454,-0.709839,0.452998,0.093510,-2.720884,-0.152427,-1.235624,-12.262647,173.434293,32.940144,-12.098901,0.359375,0.359375,
138869789,173.490034,173.490034,34.167752,3,0.680603,-0.133484,-0.080261,-0.715942,0.324860,0.007229,-2.172166,-0.187777,-0.959228,-11.773521,173.806934,32.816620,-11.885494,0.359375,0.359375,
138879148,173.580457,173.580457,34.163223,3,0.673950,-0.132812,-0.083191,-0.721985,0.476459,-0.042842,-2.623969,-0.286057,-1.242449,-12.146142,174.071095,32.676605,-12.056446,0.328125,0.332375,
138888799,173.999494,173.999494,34.163223,3,0.667175,-0.132080,-0.086182,-0.727966,0.228599,0.233976,-2.666059,0.001776,-1.043543,-12.271780,174.372473,32.549991,-12.197677,0.312500,0.312500,
138899767,174.089429,174.089429,34.158693,3,0.660217,-0.131348,-0.089233,-0.734131,0.494140,-0.279236,-2.133000,-0.489841,-1.090358,-11.662428,174.675797,32.389756,-11.846625,0.281250,0.281250,
138909191,174.717756,174.717756,34.158693,3,0.653137,-0.130676,-0.092346,-0.740112,0.044839,-0.060853,-2.619439,-0.260443,-0.847164,-12.268300,174.988332,32.278828,-12.123188,0.281250,0.281250,
138918796,174.927045,174.927045,34.158693,3,0.646057,-0.130066,-0.095398,-0.746033,0.044418,-0.028628,-2.053786,-0.181667,-0.674623,-11.732003,175.286374,32.159181,-11.866622,0.281250,0.281250,
138929813,175.674818,175.674818,34.163223,3,0.638977,-0.129456,-0.098511,-0.751831,0.548649,-0.268793,-2.547173,-0.532136,-1.267054,-12.029979,175.712672,32.070673,-11.973761,0.328125,0.314250,
138939321,175.256208,175.256208,34.163223,3,0.631836,-0.128906,-0.101562,-0.757507,0.046798,0.406163,-2.509948,0.214924,-0.911516,-12.160609,175.931543,31.902294,-12.096311,0.283125,0.287250,
138950114,175.375593,175.375593,34.167752,3,0.624634,-0.128357,-0.104553,-0.763184,0.154559,-0.255570,-2.015348,-0.418090,-0.735011,-11.651550,176.171063,31.712957,-11.804609,0.228125,0.254250,
138959378,176.184919,176.184919,34.158693,3,0.617371,-0.127808,-0.107483,-0.768738,0.065855,0.157976,-2.554415,-0.020386,-0.925201,-12.183763,176.466907,31.601534,-12.053284,0.183125,0.227250,
138968979,176.213300,176.213300,34.167752,3,0.610046,-0.127319,-0.110352,-0.774231,0.027867,-0.155404,-1.977863,-0.279054,-0.635623,-11.654775,176.722327,31.460776,-11.791915,0.140625,0.197250,
138979748,177.260969,177.260969,34.167752,3,0.602722,-0.126892,-0.113159,-0.779663,0.033386,-0.412281,-2.419450,-0.547179,-0.731758,-12.072724,177.161257,31.391751,-11.976087,0.195625,0.195625,
138989213,177.141553,177.141553,34.163223,3,0.595459,-0.126526,-0.115845,-0.784851,-0.062332,0.085144,-2.292835,-0.035087,-0.727385,-11.973571,177.454154,31.276160,-11.974437,0.203125,0.203125,
138998934,177.441358,177.441358,34.158693,3,0.588196,-0.126160,-0.118530,-0.789978,0.114525,-0.457683,-1.773402,-0.575867,-0.569396,-11.443606,177.755277,31.163472,-11.626281,0.203125,0.203125,
139010081,178.069898,178.069898,34.158693,3,0.580688,-0.125671,-0.121094,-0.795227,0.202993,0.411357,-2.246743,0.204692,-1.070996,-11.816056,178.160828,31.067406,-11.750748,0.234375,0.234375,
139019538,178.189313,178.189313,34.163223,3,0.572937,-0.125244,-0.123535,-0.800476,-0.360372,-0.283499,-1.577805,-0.248352,-0.131875,-11.414673,178.459474,30.962888,-11.530327,0.234375,0.234375,
139030393,179.356031,179.356031,34.167752,3,0.565063,-0.124756,-0.125854,-0.805786,0.099218,-0.110757,-2.182557,-0.261605,-0.808691,-11.821609,178.962821,30.936988,-11.721366,0.284375,0.264375,
139039687,179.117750,179.117750,34.158693,3,0.557190,-0.124268,-0.128052,-0.810974,-0.286050,-0.104547,-1.967751,-0.107897,-0.403149,-11.750087,179.278862,30.845724,-11.740202,0.334375,0.294375,
139049246,179.745862,179.745862,34.158693,3,0.549561,-0.123840,-0.130066,-0.815918,-0.014360,-0.303038,-1.506826,-0.360412,-0.407008,-11.238709,179.660634,30.791562,-11.411287,0.379375,0.321375,
139059981,179.565931,179.565931,34.167752,3,0.541992,-0.123352,-0.131958,-0.820740,-0.121533,0.164449,-2.293128,0.061662,-0.767225,-11.969091,179.972740,30.652584,-11.777134,0.434375,0.354375,
139069318,179.655378,179.655378,34.163223,3,0.534485,-0.122925,-0.133667,-0.825439,-0.244795,-0.734876,-1.405372,-0.654435,0.002138,-11.259439,180.199059,30.511207,-11.437595,0.390625,0.384375,
139079097,180.284589,180.284589,34.163223,3,0.527100,-0.122437,-0.135315,-0.829956,-0.129606,-0.293817,-2.006176,-0.329130,-0.484064,-11.747449,180.512858,30.406024,-11.640818,0.406250,0.406250,
139090146,180.493970,180.493970,34.163223,3,0.519897,-0.121948,-0.136780,-0.834351,-0.238274,0.118784,-1.693562,0.106083,-0.460396,-11.445259,180.844587,30.277344,-11.512557,0.406250,0.406250,
139099649,181.123243,181.123243,34.163223,3,0.512878,-0.121460,-0.138062,-0.838562,-0.160915,-0.357931,-1.780706,-0.353433,-0.352915,-11.554444,181.183979,30.199655,-11.540028,0.453125,0.436250,
139110529,181.123243,181.123243,34.163223,3,0.505920,-0.120972,-0.139221,-0.842651,-0.314063,0.078432,-2.192644,0.076358,-0.558249,-11.940477,181.500450,30.062959,-11.802670,0.437500,0.437500,
139119830,181.632032,181.632032,34.158693,3,0.499023,-0.120483,-0.140320,-0.846619,-0.241591,-0.458112,-1.855083,-0.407850,-0.257535,-11.664858,181.804216,29.969761,-11.712283,0.453125,0.453125,
139129404,181.541547,181.541547,34.163223,3,0.492126,-0.119995,-0.141296,-0.850586,-0.278718,0.264054,-2.286442,0.222416,-0.729036,-11.993856,182.041421,29.824980,-11.896959,0.421875,0.423125,
139140407,181.661512,181.661512,34.167752,3,0.485046,-0.119446,-0.142151,-0.854553,-0.078637,-0.226992,-1.656038,-0.262952,-0.426958,-11.401529,182.297779,29.656334,-11.572024,0.371875,0.393125,
139149757,182.470807,182.470807,34.158693,3,0.477966,-0.118835,-0.142944,-0.858459,-0.350932,-0.055047,-2.424828,-0.027451,-0.565946,-12.181689,182.606909,29.562148,-11.971883,0.375000,0.375000,
139160678,182.470807,182.470807,34.158693,3,0.470825,-0.118164,-0.143616,-0.862427,-0.175232,0.108548,-2.147542,0.042186,-0.695378,-11.839820,182.903565,29.417317,-11.885268,0.359375,0.359375,
139170072,183.009656,183.009656,34.163223,3,0.463684,-0.117493,-0.144165,-0.866272,-0.167800,-0.213704,-1.966080,-0.227840,-0.466318,-11.713136,183.199275,29.319621,-11.772371,0.375000,0.375000,
139179671,182.919141,182.919141,34.167752,3,0.456482,-0.116699,-0.144714,-0.870117,-0.146106,0.220809,-2.431493,0.092356,-0.884589,-12.075709,183.427709,29.171739,-11.971322,0.325000,0.345000,
139190610,183.219099,183.219099,34.163223,3,0.449219,-0.115906,-0.145142,-0.873901,-0.236656,-0.187380,-1.680441,-0.136950,-0.323697,-11.465883,183.707091,29.022477,-11.639821,0.281250,0.312000,
139200106,183.967481,183.967481,34.167752,3,0.441833,-0.114990,-0.145508,-0.877686,-0.159701,0.125661,-2.265567,0.035198,-0.766217,-11.946409,184.030904,28.938951,-11.840901,0.312500,0.312500,
139209740,183.548017,183.548017,34.167752,3,0.434387,-0.114136,-0.145813,-0.881470,-0.105600,0.055759,-1.839047,-0.025862,-0.617740,-11.538350,184.218794,28.772778,-11.642470,0.262500,0.282500,
139220822,183.548017,183.548017,34.167752,3,0.426941,-0.113159,-0.145996,-0.885254,0.223210,-0.209890,-1.724536,-0.430078,-0.655895,-11.364536,184.411354,28.570781,-11.460184,0.212500,0.252500,
139230046,184.866956,184.866956,34.154164,3,0.419312,-0.112122,-0.146118,-0.888977,0.224221,0.560954,-2.183240,0.129562,-1.279561,-11.672347,184.759714,28.515680,-11.599333,0.187500,0.222500,
139240900,184.776411,184.776411,34.158693,3,0.411682,-0.110962,-0.146301,-0.892639,0.187556,0.258334,-1.566759,-0.040687,-0.848075,-11.156958,185.071711,28.396302,-11.309193,0.187500,0.189500,
139250130,185.854413,185.854413,34.167752,3,0.403870,-0.109680,-0.146484,-0.896362,0.447974,0.410164,-2.258138,-0.157443,-1.368059,-11.688148,185.479878,28.378645,-11.557735,0.232500,0.216500,
139259862,185.705976,185.705976,34.154164,3,0.395996,-0.108459,-0.146606,-0.899963,0.294742,0.439368,-1.856409,-0.012764,-1.136774,-11.363615,185.797843,28.293722,-11.430417,0.282500,0.246500,
139270631,186.363447,186.363447,34.163223,3,0.388245,-0.107178,-0.146729,-0.903442,0.503666,0.152999,-1.805962,-0.373031,-1.070724,-11.299387,186.207779,28.235936,-11.344476,0.337500,0.279500,
139280162,185.825452,185.825452,34.158693,3,0.380493,-0.105896,-0.146912,-0.906921,0.326142,0.473811,-2.082530,-0.054079,-1.260923,-11.558736,186.404770,28.081802,-11.485004,0.382500,0.306500,
139289861,186.664564,186.664564,34.158693,3,0.372620,-0.104553,-0.147095,-0.910278,0.544692,-0.071176,-1.204892,-0.528279,-0.720605,-10.774956,186.725280,28.006855,-11.019305,0.432500,0.336500,
139300958,186.544019,186.544019,34.154164,3,0.364868,-0.103271,-0.147400,-0.913513,0.459446,0.318431,-1.932687,-0.264262,-1.182247,-11.413146,187.001411,27.859891,-11.277614,0.437500,0.369500,
139310171,186.664564,186.664564,34.158693,3,0.357361,-0.101990,-0.147705,-0.916565,0.520725,0.451332,-1.273478,-0.176876,-1.083484,-10.749392,187.194567,27.722190,-10.931171,0.392500,0.392500,
139321148,186.993055,186.993055,34.163223,3,0.349915,-0.100769,-0.148132,-0.919495,0.259353,-0.063395,-1.799347,-0.375794,-0.738082,-11.418563,187.460424,27.574179,-11.250837,0.337500,0.359500,
139330456,187.712232,187.712232,34.158693,3,0.342651,-0.099731,-0.148621,-0.922241,0.500418,0.438297,-1.869158,-0.232550,-1.262308,-11.312547,187.763758,27.497986,-11.291309,0.387500,0.387500,
139340190,188.131849,188.131849,34.158693,3,0.335693,-0.098816,-0.149109,-0.924805,0.069099,0.106132,-1.316507,-0.091895,-0.571286,-10.986586,188.099815,27.432961,-11.091449,0.432500,0.414500,
139351065,187.922285,187.922285,34.158693,3,0.328796,-0.098083,-0.149719,-0.927307,0.223222,0.223381,-2.250194,-0.221715,-1.067361,-11.791994,188.364179,27.284882,-11.550915,0.421875,0.421875,
139360522,188.041273,188.041273,34.163223,3,0.321960,-0.097412,-0.150513,-0.929626,-0.005929,0.591487,-1.734578,0.231188,-1.041330,-11.293322,188.561243,27.140948,-11.381969,0.371875,0.391875,
139370182,188.670484,188.670484,34.163223,3,0.314941,-0.096863,-0.151306,-0.931946,0.076301,0.511523,-2.209259,0.067986,-1.194247,-11.732768,188.843309,27.040032,-11.612047,0.375000,0.375000,
139381280,189.270734,189.270734,34.154164,3,0.307739,-0.096375,-0.152161,-0.934265,-0.077512,0.180031,-1.577635,0.034319,-0.644675,-11.259617,189.222762,26.963270,-11.380897,0.425000,0.405000,
139390553,189.599866,189.599866,34.158693,3,0.300476,-0.095825,-0.153076,-0.936523,0.012290,0.174296,-1.822450,-0.063226,-0.773053,-11.458181,189.542927,26.900578,-11.431583,0.475000,0.435000,
139401450,189.300245,189.300245,34.163223,3,0.293152,-0.095215,-0.154114,-0.938782,-0.111895,0.339102,-1.991594,0.110060,-0.905278,-11.610862,189.789911,26.746523,-11.549167,0.500000,0.465000,
139410720,189.928968,189.928968,34.163223,3,0.285767,-0.094543,-0.155212,-0.940918,-0.172693,0.281410,-1.479567,0.168558,-0.648950,-11.156991,190.063436,26.659343,-11.291951,0.531250,0.495000,
139420453,190.049055,190.049055,34.167752,3,0.278259,-0.093811,-0.156433,-0.943054,-0.117527,0.295847,-2.161239,0.060952,-0.931731,-11.776804,190.319642,26.543093,-11.609951,0.515625,0.515625,
139431441,190.438734,190.438734,34.158693,3,0.270630,-0.092957,-0.157776,-0.945129,-0.115150,0.300139,-1.516813,0.122808,-0.712383,-11.168629,190.632942,26.433663,-11.320501,0.546875,0.545625,
139440885,190.528791,190.528791,34.154164,3,0.262939,-0.091980,-0.159180,-0.947144,-0.297140,0.089295,-1.696244,0.146726,-0.527205,-11.438230,190.862558,26.313573,-11.397717,0.531250,0.531250,
139450455,191.158674,191.158674,34.154164,3,0.255676,-0.091003,-0.160645,-0.948975,-0.134402,0.495886,-2.058291,0.177961,-1.071884,-11.619916,191.169262,26.236099,-11.543449,0.581250,0.561250,
139461577,191.068067,191.068067,34.158693,3,0.248596,-0.089966,-0.162109,-0.950684,-0.160097,0.038985,-1.712448,-0.002282,-0.571671,-11.425989,191.441409,26.097520,-11.466411,0.578125,0.578125,
139471013,191.397779,191.397779,34.163223,3,0.241699,-0.088867,-0.163574,-0.952332,-0.160803,0.263690,-2.282381,0.060694,-0.961667,-11.891070,191.678943,25.980103,-11.744932,0.546875,0.548125,
139481800,191.397779,191.397779,34.163223,3,0.234802,-0.087708,-0.165100,-0.953918,-0.402214,0.101475,-1.610398,0.257007,-0.493871,-11.372479,191.905877,25.825238,-11.500653,0.491875,0.515125,
139491066,191.817548,191.817548,34.163223,3,0.227905,-0.086365,-0.166687,-0.955444,-0.228254,0.053081,-1.982100,0.050381,-0.666649,-11.681324,192.128119,25.706709,-11.619150,0.453125,0.488125,
139500685,192.326856,192.326856,34.158693,3,0.220947,-0.084900,-0.168274,-0.956909,-0.166598,0.715820,-2.401451,0.258167,-1.400803,-11.863389,192.412029,25.615203,-11.779338,0.500000,0.500000,
139511570,192.236799,192.236799,34.163223,3,0.214111,-0.083496,-0.169861,-0.958313,-0.174834,-0.126265,-1.587754,-0.038686,-0.400565,-11.353039,192.657387,25.471640,-11.499742,0.450000,0.470000,
139520901,192.326856,192.326856,34.158693,3,0.207214,-0.081909,-0.171448,-0.959656,-0.117628,0.107497,-2.185223,-0.041778,-0.845385,-11.818110,192.832643,25.323226,-11.708552,0.400000,0.440000,
139531672,193.165967,193.165967,34.158693,3,0.200256,-0.080200,-0.173035,-0.960999,-0.080063,0.237852,-1.645827,0.032880,-0.780982,-11.273939,193.167179,25.239432,-11.423502,0.437500,0.437500,
139540991,193.376142,193.376142,34.158693,3,0.193176,-0.078369,-0.174622,-0.962341,-0.320596,0.110306,-2.093051,0.165988,-0.756499,-11.772213,193.440987,25.153650,-11.652210,0.484375,0.467500,
139550721,193.286085,193.286085,34.163223,3,0.186218,-0.076416,-0.176147,-0.963562,-0.207319,0.519603,-1.891788,0.229810,-1.079598,-11.436630,193.656211,25.024796,-11.510818,0.437500,0.437500,
139561834,193.585798,193.585798,34.158693,3,0.178955,-0.074341,-0.177673,-0.964844,-0.495597,-0.162653,-1.500512,0.279063,-0.251986,-11.341016,193.920434,24.890727,-11.399451,0.406250,0.406250,
139571293,194.005659,194.005659,34.158693,3,0.171753,-0.072144,-0.179199,-0.966003,0.324253,0.205035,-2.167820,-0.396510,-1.083680,-11.676396,194.171303,24.790011,-11.581090,0.421875,0.421875,
139580996,194.334943,194.334943,34.163223,3,0.164673,-0.070007,-0.180603,-0.967163,-0.348613,-0.137214,-1.217355,0.189022,-0.238724,-11.041254,194.441976,24.701563,-11.227028,0.468750,0.451875,
139591843,195.054609,195.054609,34.158693,3,0.157654,-0.067810,-0.181946,-0.968201,0.259990,-0.271091,-1.803910,-0.465517,-0.509809,-11.506672,194.823945,24.646313,-11.410435,0.523750,0.484875,
139601186,194.874952,194.874952,34.167752,3,0.150818,-0.065674,-0.183228,-0.969238,-0.041313,0.197735,-1.665198,-0.024991,-0.797798,-11.278776,195.063282,24.546864,-11.324084,0.568750,0.511875,
139612098,195.084638,195.084638,34.167752,3,0.144165,-0.063477,-0.184387,-0.970154,0.127594,-0.188068,-1.648062,-0.299559,-0.495045,-11.365307,195.334459,24.425289,-11.351121,0.623750,0.544875,
139621353,195.174726,195.174726,34.163223,3,0.137573,-0.061279,-0.185547,-0.971008,0.123360,0.086688,-1.741259,-0.215433,-0.771016,-11.352794,195.530112,24.301758,-11.352219,0.625000,0.574875,
139631106,195.174726,195.174726,34.163223,3,0.130981,-0.059082,-0.186584,-0.971863,0.159356,-0.487558,-1.326496,-0.378806,-0.105506,-11.167151,195.700088,24.152442,-11.230840,0.580000,0.580000,
139642162,195.684217,195.684217,34.158693,3,0.124512,-0.056946,-0.187561,-0.972656,0.286696,0.077451,-2.132287,-0.393825,-0.949181,-11.696057,195.963411,24.021549,-11.535961,0.525000,0.547000,
139651632,195.804365,195.804365,34.163223,3,0.118286,-0.054810,-0.188477,-0.973389,-0.053929,0.004117,-1.481589,-0.042073,-0.556603,-11.178914,196.160619,23.897446,-11.301786,0.475000,0.517000,
139661192,196.943586,196.943586,34.158693,3,0.112366,-0.052734,-0.189270,-0.974060,0.277192,-0.024981,-1.847441,-0.387358,-0.741556,-11.467246,196.535107,23.877140,-11.410303,0.525000,0.525000,
139672267,196.104169,196.104169,34.158693,3,0.106506,-0.050781,-0.190002,-0.974670,0.104900,0.358649,-1.963858,-0.141103,-1.096864,-11.464350,196.718143,23.701445,-11.445752,0.546875,0.546875,
139681681,197.243940,197.243940,34.154164,3,0.100647,-0.048828,-0.190674,-0.975281,0.066099,-0.242635,-1.443247,-0.208144,-0.342366,-11.209152,197.039269,23.656761,-11.290571,0.596875,0.576875,
139692472,196.433484,196.433484,34.163223,3,0.094543,-0.046875,-0.191284,-0.975830,0.025139,0.070770,-2.032434,-0.123379,-0.847286,-11.645184,197.180385,23.462174,-11.523153,0.546875,0.546875,
139701643,196.643201,196.643201,34.163223,3,0.088196,-0.044922,-0.191895,-0.976440,0.131887,-0.258253,-1.243090,-0.245690,-0.265635,-11.024539,197.294508,23.299182,-11.196130,0.496875,0.516875,
139711403,197.363569,197.363569,34.158693,3,0.081543,-0.042908,-0.192383,-0.976990,0.426673,-0.152923,-1.795549,-0.538780,-0.614165,-11.462810,197.534276,23.195161,-11.371037,0.446875,0.486875,
139722374,197.573316,197.573316,34.158693,3,0.074707,-0.041016,-0.192871,-0.977539,0.001281,0.120446,-1.576231,-0.070057,-0.720732,-11.207955,197.795392,23.076542,-11.264076,0.396875,0.456875,
139731816,197.573316,197.573316,34.158693,3,0.067993,-0.039185,-0.193298,-0.977966,0.274387,-0.321308,-1.388237,-0.396843,-0.275404,-11.171918,197.971196,22.945491,-11.203634,0.346875,0.426875,
139741416,198.622602,198.622602,34.158693,3,0.061523,-0.037476,-0.193726,-0.978394,0.479978,0.031552,-1.938310,-0.569103,-0.824909,-11.531607,198.312846,22.908913,-11.418738,0.396875,0.396875,
139752428,198.322706,198.322706,34.163223,3,0.055115,-0.035767,-0.194092,-0.978760,0.350759,-0.144612,-1.431259,-0.440294,-0.456121,-11.142859,198.566301,22.787193,-11.237798,0.446875,0.426875,
139761650,198.322706,198.322706,34.163223,3,0.048706,-0.034180,-0.194458,-0.979126,0.599661,-0.100077,-1.610005,-0.685396,-0.576254,-11.274732,198.730347,22.655118,-11.262023,0.396875,0.396875,
139772698,199.162855,199.162855,34.163223,3,0.042175,-0.032654,-0.194824,-0.979370,0.569344,0.170612,-1.892511,-0.647567,-0.929466,-11.437130,199.060936,22.577881,-11.376869,0.446875,0.426875,
139781779,199.252973,199.252973,34.158693,3,0.035461,-0.031067,-0.195190,-0.979614,0.615927,-0.317560,-1.158314,-0.695489,-0.196520,-10.945211,199.301501,22.500919,-11.093757,0.496875,0.456875,
139791562,199.372632,199.372632,34.163223,3,0.028320,-0.029358,-0.195496,-0.979858,0.273635,0.250210,-1.920782,-0.347931,-0.982551,-11.462463,199.534375,22.396873,-11.335579,0.546875,0.486875,
139802409,199.162855,199.162855,34.163223,3,0.021118,-0.027771,-0.195679,-0.980042,0.590368,-0.047389,-1.014471,-0.643076,-0.364441,-10.722240,199.707151,22.238336,-10.933311,0.496875,0.496875,
139811919,199.492261,199.492261,34.167752,3,0.014099,-0.026245,-0.195923,-0.980164,0.310777,-0.144925,-1.452469,-0.390771,-0.439176,-11.179173,199.877880,22.107239,-11.094565,0.446875,0.466875,
139821557,200.032026,200.032026,34.172282,3,0.007263,-0.024841,-0.195984,-0.980286,0.557070,0.310574,-1.374446,-0.617272,-0.821314,-10.922783,200.119298,22.019506,-10.981898,0.453125,0.453125,
139832652,200.512220,200.512220,34.158693,3,0.000305,-0.023621,-0.196106,-0.980286,0.116179,-0.107013,-1.111444,-0.173604,-0.336672,-10.861549,200.436515,21.943336,-10.902963,0.503125,0.483125,
139841886,199.882856,199.882856,34.158693,3,-0.006653,-0.022461,-0.196167,-0.980286,0.462214,0.300388,-1.853697,-0.555616,-0.982889,-11.377164,200.534943,21.774132,-11.213980,0.453125,0.453125,
139852911,200.932905,200.932905,34.158693,3,-0.013367,-0.021545,-0.196167,-0.980225,0.185710,0.091450,-1.065018,-0.240462,-0.492498,-10.741171,200.848906,21.700680,-10.903877,0.508125,0.486125,
139862131,200.932905,200.932905,34.158693,3,-0.019958,-0.020691,-0.196228,-0.980164,0.277438,0.668861,-1.762737,-0.383829,-1.279194,-11.162287,201.064233,21.607368,-11.073360,0.553125,0.513125,
139871889,201.352521,201.352521,34.158693,3,-0.026978,-0.019897,-0.196289,-0.979980,-0.007865,0.454274,-1.232186,-0.082269,-0.893031,-10.763424,201.328538,21.535122,-10.870081,0.603125,0.543125,
139882779,201.683088,201.683088,34.163223,3,-0.033997,-0.019165,-0.196350,-0.979736,0.265611,0.218096,-1.584776,-0.365871,-0.792582,-11.171925,201.628771,21.453739,-11.068050,0.658125,0.576125,
139892237,201.052564,201.052564,34.163223,3,-0.040955,-0.018494,-0.196350,-0.979492,0.014098,0.690764,-1.711873,-0.161852,-1.294243,-11.111964,201.723267,21.282221,-11.096855,0.613125,0.603125,
139901804,201.892377,201.892377,34.163223,3,-0.047852,-0.017883,-0.196350,-0.979187,0.143819,0.050272,-1.146665,-0.218707,-0.475397,-10.835354,201.958040,21.197832,-10.925344,0.663125,0.633125,
139912960,202.221906,202.221906,34.167752,3,-0.054871,-0.017334,-0.196472,-0.978821,-0.104394,0.879044,-1.711806,-0.080901,-1.471852,-11.043209,202.243240,21.104496,-11.002647,0.718125,0.666125,
139922326,202.102216,202.102216,34.163223,3,-0.062012,-0.016663,-0.196655,-0.978394,0.077913,0.438813,-1.021425,-0.186698,-0.784689,-10.574142,202.414047,20.989349,-10.721605,0.765625,0.696125,
139933217,202.852491,202.852491,34.167752,3,-0.069092,-0.016052,-0.196960,-0.977844,0.253345,0.457967,-1.916896,-0.424221,-1.124315,-11.391116,202.724065,20.915475,-11.160714,0.815625,0.726125,
139942463,202.821912,202.821912,34.158693,3,-0.076050,-0.015381,-0.197327,-0.977234,-0.091074,0.847956,-1.325483,-0.111272,-1.295974,-10.689565,202.935343,20.828168,-10.851702,0.865625,0.756125,
139952188,203.242658,203.242658,34.158693,3,-0.083130,-0.014709,-0.197754,-0.976624,-0.344173,0.073741,-1.063873,0.262904,-0.532759,-10.751082,203.194914,20.758582,-10.785707,0.910625,0.783125,
139963043,203.272199,203.272199,34.167752,3,-0.090210,-0.014099,-0.198303,-0.975891,-0.137625,0.662283,-2.134022,-0.111651,-1.444918,-11.511285,203.434012,20.642668,-11.261591,0.965625,0.816125,
139972404,203.662397,203.662397,34.158693,3,-0.097107,-0.013428,-0.198914,-0.975098,-0.048160,0.334842,-1.275859,-0.096427,-0.809552,-10.839348,203.669561,20.567655,-10.984654,1.000000,0.843125,
139983183,203.691907,203.691907,34.167752,3,-0.103882,-0.012756,-0.199646,-0.974243,-0.448729,0.572637,-1.770099,0.211335,-1.292611,-11.201321,203.894785,20.449532,-11.126759,1.000000,0.876125,
139992455,204.202375,204.202375,34.163223,3,-0.110535,-0.012024,-0.200500,-0.973389,0.338154,0.758995,-1.699183,-0.600020,-1.265996,-11.071043,204.141520,20.382351,-11.090215,1.000000,0.906125,
140002096,204.202375,204.202375,34.163223,3,-0.117004,-0.011292,-0.201477,-0.972412,-0.093476,0.083361,-1.481204,-0.024600,-0.678632,-11.121103,204.348896,20.282036,-11.110473,1.000000,0.933125,
140013208,204.412244,204.412244,34.163223,3,-0.123291,-0.010498,-0.202515,-0.971436,-0.696781,0.690775,-1.835521,0.392316,-1.506163,-11.195132,204.585436,20.164822,-11.165998,1.000000,0.966125,
140022651,204.202375,204.202375,34.163223,3,-0.129456,-0.009705,-0.203613,-0.970398,0.681680,0.446906,-1.446428,-0.870366,-0.788858,-10.976628,204.703629,20.017072,-11.041798,1.000000,0.996125,
140032367,204.833082,204.833082,34.163223,3,-0.135559,-0.008850,-0.204834,-0.969299,-0.215559,0.662960,-2.116873,-0.113837,-1.483771,-11.467041,204.921786,19.920382,-11.320701,1.000000,1.000000,
140043164,204.833082,204.833082,34.163223,3,-0.141907,-0.007874,-0.206116,-0.968140,0.422342,0.706446,-1.826287,-0.729157,-1.230778,-11.207766,205.119609,19.789284,-11.246631,1.000000,1.000000,
140052517,205.883100,205.883100,34.163223,3,-0.148193,-0.006958,-0.207520,-0.966919,-0.076454,0.604063,-2.073726,-0.254111,-1.380425,-11.450903,205.447154,19.769951,-11.380603,1.000000,1.000000,
140063425,205.013441,205.013441,34.154164,3,-0.154541,-0.005920,-0.208984,-0.965637,0.218183,1.092206,-2.300571,-0.705744,-1.804814,-11.463934,205.580895,19.595725,-11.435259,1.000000,1.000000,
140072642,205.072492,205.072492,34.172282,3,-0.161072,-0.004883,-0.210571,-0.964233,0.057586,0.653689,-1.592252,-0.378439,-1.192398,-10.985350,205.665852,19.435977,-11.140180,1.000000,1.000000,
140082378,206.273939,206.273939,34.154164,3,-0.167480,-0.003784,-0.212341,-0.962708,-0.064425,0.767575,-2.277844,-0.358812,-1.607541,-11.557057,205.968316,19.392485,-11.413594,1.000000,1.000000,
140093484,205.672651,205.672651,34.163223,3,-0.173828,-0.002686,-0.214172,-0.961182,0.123965,0.552835,-1.671479,-0.426364,-1.120103,-11.095503,206.127654,19.235689,-11.204969,1.000000,1.000000,
140102931,206.513380,206.513380,34.163223,3,-0.180298,-0.001587,-0.216125,-0.959595,-0.351547,0.482452,-1.808382,0.018695,-1.280744,-11.217339,206.381121,19.174264,-11.213080,1.000000,1.000000,
140112529,206.183210,206.183210,34.158693,3,-0.186890,-0.000488,-0.218201,-0.957825,-0.002645,0.405310,-1.659282,-0.278941,-1.032686,-11.135166,206.527601,19.044830,-11.161980,1.000000,1.000000,
140123335,207.023969,207.023969,34.158693,3,-0.193359,0.000610,-0.220398,-0.956055,-0.095486,0.293748,-1.803710,-0.165064,-1.040459,-11.298801,206.825670,18.978950,-11.251715,1.000000,1.000000,
140132701,206.723829,206.723829,34.163223,3,-0.199585,0.001709,-0.222717,-0.954224,-0.107065,0.752074,-2.091339,-0.364376,-1.549860,-11.357087,206.983855,18.860833,-11.320826,1.000000,1.000000,
140143748,206.813520,206.813520,34.158693,3,-0.205627,0.002686,-0.225159,-0.952393,0.273300,0.143753,-1.368098,-0.420617,-0.604634,-10.996378,207.159651,18.719886,-11.108031,1.000000,1.000000,
140153123,207.053510,207.053510,34.167752,3,-0.211670,0.003784,-0.227661,-0.950439,0.279295,0.389813,-2.313966,-0.615386,-1.212410,-11.728592,207.314723,18.597393,-11.515038,1.000000,1.000000,
140162741,207.563581,207.563581,34.163223,3,-0.217529,0.004883,-0.230225,-0.948486,0.163968,0.325237,-1.675123,-0.433085,-0.928020,-11.173527,207.539672,18.518323,-11.291050,1.000000,1.000000,
140173820,207.773542,207.773542,34.163223,3,-0.223450,0.006042,-0.232910,-0.946472,0.028463,0.092723,-1.932719,-0.244399,-0.924578,-11.487029,207.787920,18.417628,-11.419586,1.000000,1.000000,
140183277,207.804120,207.804120,34.172282,3,-0.229370,0.007202,-0.235596,-0.944397,0.412396,0.521686,-2.137966,-0.795834,-1.189081,-11.519667,207.964611,18.310521,-11.485226,1.000000,1.000000,
140192850,207.654310,207.654310,34.158693,3,-0.235229,0.008423,-0.238342,-0.942261,0.171036,0.121669,-1.491053,-0.347914,-0.700725,-11.091694,208.081321,18.168966,-11.227122,1.000000,1.000000,
140203906,207.563581,207.563581,34.163223,3,-0.240906,0.009705,-0.241089,-0.940063,-0.107619,0.048125,-2.186188,-0.137618,-1.095137,-11.692681,208.184511,17.981325,-11.532470,1.000000,1.000000,
140213113,208.074232,208.074232,34.158693,3,-0.246460,0.010864,-0.243896,-0.937927,-0.015856,-0.036434,-1.520816,-0.114330,-0.686696,-11.150700,208.328957,17.866100,-11.282079,1.000000,1.000000,
140223992,207.954999,207.954999,34.154164,3,-0.251770,0.012085,-0.246765,-0.935730,-0.058530,-0.375408,-1.658620,0.067244,-0.528265,-11.411318,208.452607,17.699556,-11.366845,1.000000,1.000000,
140233198,208.193983,208.193983,34.163223,3,-0.256836,0.013184,-0.249634,-0.933594,-0.009165,-0.233101,-1.921387,-0.072234,-0.746286,-11.589353,208.566614,17.562917,-11.512782,0.955000,0.973000,
140242955,208.404462,208.404462,34.163223,3,-0.261841,0.014343,-0.252441,-0.931396,0.068125,-0.350342,-1.395997,-0.028909,-0.385188,-11.189706,208.707110,17.435327,-11.300887,0.905000,0.943000,
140253754,209.215345,209.215345,34.154164,3,-0.266968,0.015503,-0.255310,-0.929138,0.043069,0.079513,-2.081180,-0.293077,-1.045413,-11.580295,208.989859,17.367820,-11.484140,0.960000,0.960000,
140263233,209.664838,209.664838,34.163223,3,-0.272156,0.016785,-0.258118,-0.926819,0.310777,-0.144925,-1.452469,-0.347340,-0.451357,-11.180564,209.280390,17.339465,-11.285031,1.000000,0.987000,
140274077,209.244886,209.244886,34.163223,3,-0.277283,0.018127,-0.260864,-0.924500,0.155952,-0.046570,-1.951217,-0.318333,-0.851644,-11.533907,209.461081,17.210449,-11.448261,1.000000,1.000000,
140283542,208.915143,208.915143,34.158693,3,-0.282349,0.019470,-0.263550,-0.922180,0.296854,0.192980,-1.822129,-0.560110,-0.893551,-11.326841,209.521222,17.040284,-11.368628,1.000000,1.000000,
140293102,209.454847,209.454847,34.163223,3,-0.287415,0.020813,-0.266113,-0.919861,0.173229,-0.372412,-1.482060,-0.109667,-0.396380,-11.277749,209.671192,16.924912,-11.309024,0.984375,0.984375,
140304266,210.385572,210.385572,34.158693,3,-0.292419,0.022278,-0.268555,-0.917542,0.261605,0.086698,-1.716664,-0.465210,-0.793327,-11.279481,209.993215,16.879716,-11.289645,1.000000,1.000000,
140313537,210.505903,210.505903,34.163223,3,-0.297363,0.023743,-0.270935,-0.915222,-0.003712,-0.236744,-1.187826,-0.001679,-0.451181,-10.923448,210.245282,16.837895,-11.049465,1.000000,1.000000,
140323254,210.265821,210.265821,34.154164,3,-0.302124,0.025146,-0.273193,-0.912903,0.390712,-0.358760,-1.722041,-0.315118,-0.442271,-11.521719,210.412176,16.728273,-11.359202,1.000000,1.000000,
140334045,210.505903,210.505903,34.163223,3,-0.306824,0.026611,-0.275391,-0.910645,0.229398,-0.126640,-1.534166,-0.300304,-0.590787,-11.207986,210.609594,16.617879,-11.260024,1.000000,1.000000,
140343504,210.295881,210.295881,34.163223,3,-0.311401,0.028076,-0.277466,-0.908447,0.203313,-0.345957,-1.173181,-0.102604,-0.277819,-11.008025,210.707556,16.477770,-11.094747,1.000000,1.000000,
140354280,210.806135,210.806135,34.158693,3,-0.315979,0.029541,-0.279480,-0.906189,0.155285,0.171017,-1.946438,-0.460233,-1.048705,-11.387885,210.902909,16.366355,-11.287007,1.000000,1.000000,
140363747,211.226697,211.226697,34.158693,3,-0.320435,0.031006,-0.281372,-0.903992,0.117726,-0.611418,-1.122525,0.136757,-0.142445,-11.067985,211.118006,16.298975,-11.143356,1.000000,1.000000,
140373357,211.226697,211.226697,34.158693,3,-0.324768,0.032471,-0.283264,-0.901794,0.115980,0.171138,-1.947791,-0.433885,-1.083758,-11.376485,211.294447,16.202012,-11.296257,1.000000,1.000000,
140384425,211.436719,211.436719,34.158693,3,-0.329041,0.033936,-0.284973,-0.899658,0.205213,-0.523113,-1.137379,0.016219,-0.175734,-11.056638,211.499745,16.095607,-11.139098,1.000000,1.000000,
140393835,211.856763,211.856763,34.158693,3,-0.333374,0.035400,-0.286560,-0.897461,0.320463,-0.101835,-1.738618,-0.403176,-0.692881,-11.382495,211.717559,16.029620,-11.298733,1.000000,1.000000,
140403572,211.466260,211.466260,34.167752,3,-0.337708,0.036926,-0.288025,-0.895325,0.170562,-0.166019,-1.537066,-0.221498,-0.635257,-11.204824,211.826072,15.891897,-11.237142,1.000000,1.000000,
140414519,211.436719,211.436719,34.158693,3,-0.341919,0.038391,-0.289429,-0.893188,0.049670,-0.408972,-1.368193,0.045581,-0.471134,-11.149041,211.926463,15.725681,-11.179361,1.000000,1.000000,
140423969,211.556501,211.556501,34.163223,3,-0.346130,0.039856,-0.290710,-0.891113,0.158296,0.073852,-1.869186,-0.402029,-0.971731,-11.351295,212.005261,15.575644,-11.292129,1.000000,1.000000,
140434709,212.277387,212.277387,34.158693,3,-0.350159,0.041260,-0.291870,-0.889099,0.119979,-0.461326,-1.039842,0.071188,-0.233069,-10.918988,212.222901,15.489268,-11.047396,1.000000,1.000000,
140444000,212.397687,212.397687,34.163223,3,-0.354248,0.042725,-0.292969,-0.887085,0.374788,-0.247299,-1.601192,-0.321536,-0.512580,-11.345777,212.399044,15.403925,-11.243094,1.000000,1.000000,
140453577,211.797132,211.797132,34.172282,3,-0.358276,0.044128,-0.293945,-0.885071,0.159830,-0.199871,-1.280484,-0.156046,-0.495172,-11.000090,212.433427,15.230159,-11.083718,1.000000,1.000000,
140464675,212.307447,212.307447,34.167752,3,-0.362244,0.045471,-0.294800,-0.883057,0.289973,-0.432987,-1.519014,-0.126605,-0.421201,-11.348456,212.578154,15.090137,-11.257351,1.000000,1.000000,
140474114,212.607740,212.607740,34.163223,3,-0.366089,0.046814,-0.295654,-0.881104,0.146124,0.177812,-1.639346,-0.445056,-0.917249,-11.099556,212.725644,14.988841,-11.153858,1.000000,1.000000,
140483757,212.607740,212.607740,34.163223,3,-0.369751,0.048157,-0.296326,-0.879272,0.059707,-0.253882,-1.057166,-0.005524,-0.413395,-10.803823,212.847626,14.871257,-10.924282,1.000000,1.000000,
140494650,213.748823,213.748823,34.158693,3,-0.373413,0.049438,-0.296997,-0.877441,0.349760,-0.042584,-1.736299,-0.456592,-0.730872,-11.343317,213.177667,14.849800,-11.199110,1.000000,1.000000,
140503966,213.448499,213.448499,34.163223,3,-0.377075,0.050720,-0.297607,-0.875610,0.214332,-0.074086,-1.394764,-0.291696,-0.604494,-11.039289,213.366251,14.778201,-11.094287,1.000000,1.000000,
140514800,213.448499,213.448499,34.163223,3,-0.380798,0.052063,-0.298096,-0.873779,0.139379,-0.160683,-1.300147,-0.163986,-0.564526,-10.982603,213.541121,14.668502,-11.021037,1.000000,1.000000,
140523984,213.779432,213.779432,34.167752,3,-0.384521,0.053345,-0.298462,-0.871948,0.183884,0.018143,-1.701037,-0.372166,-0.847462,-11.240868,213.719977,14.592641,-11.165216,1.000000,1.000000,
140533635,213.658582,213.658582,34.163223,3,-0.388184,0.054626,-0.298767,-0.870117,0.232104,-0.340151,-0.904448,-0.039959,-0.183834,-10.773044,213.848837,14.481709,-10.908003,1.000000,1.000000,
140544723,214.409162,214.409162,34.167752,3,-0.391846,0.055908,-0.299011,-0.868286,0.324296,0.306927,-1.580790,-0.660177,-0.838443,-11.053775,214.113626,14.422345,-11.003608,1.000000,1.000000,
140554200,214.380109,214.380109,34.158693,3,-0.395508,0.057190,-0.299194,-0.866455,0.249357,-0.331843,-0.973050,-0.062473,-0.216443,-10.832867,214.299735,14.350438,-10.891623,1.000000,1.000000,
140563932,213.689191,213.689191,34.172282,3,-0.399109,0.058533,-0.299316,-0.864685,0.301238,-0.346477,-1.179724,-0.115999,-0.301023,-11.024900,214.324587,14.173646,-10.979038,1.000000,1.000000,
140574720,214.499952,214.499952,34.163223,3,-0.402649,0.059753,-0.299377,-0.862976,0.271199,-0.055791,-1.451867,-0.339889,-0.614487,-11.096033,214.509677,14.073846,-11.055771,1.000000,1.000000,
140584042,214.380109,214.380109,34.158693,3,-0.406250,0.061035,-0.299377,-0.861145,-0.039294,-0.234233,-1.079972,0.046879,-0.527851,-10.768764,214.616158,13.958664,-10.867532,1.000000,1.000000,
140594888,214.199598,214.199598,34.167752,3,-0.409912,0.062256,-0.299316,-0.859375,0.392459,0.177489,-1.611029,-0.611277,-0.739060,-11.165704,214.688879,13.790447,-11.063095,1.000000,1.000000,
140604282,215.221021,215.221021,34.158693,3,-0.413574,0.063477,-0.299194,-0.857605,0.141268,-0.331509,-0.976773,0.017908,-0.303856,-10.797279,214.917621,13.750443,-10.888752,1.000000,1.000000,
140614072,215.130750,215.130750,34.163223,3,-0.417053,0.064636,-0.299011,-0.855835,0.325549,0.119445,-1.565062,-0.516204,-0.722494,-11.139793,215.091585,13.665623,-11.053401,1.000000,1.000000,
140625216,215.040479,215.040479,34.167752,3,-0.420410,0.065735,-0.298889,-0.854187,0.067713,-0.100096,-0.805707,-0.078476,-0.363722,-10.519277,215.233673,13.542352,-10.703086,1.000000,1.000000,
140634531,215.221021,215.221021,34.158693,3,-0.423767,0.066833,-0.298706,-0.852478,0.091288,-0.278781,-1.284591,-0.023030,-0.541772,-10.995115,215.356959,13.438333,-10.894619,1.000000,1.000000,
140645385,216.061994,216.061994,34.158693,3,-0.427185,0.067932,-0.298462,-0.850769,0.204131,0.050959,-1.104922,-0.317800,-0.506836,-10.747854,215.634259,13.401987,-10.798357,1.000000,1.000000,
140654655,215.761060,215.761060,34.163223,3,-0.430664,0.068970,-0.298218,-0.848999,0.157342,-0.268069,-0.786499,0.003118,-0.217316,-10.612691,215.781800,13.318361,-10.676584,1.000000,1.000000,
140664221,215.641248,215.641248,34.158693,3,-0.434082,0.070129,-0.297913,-0.847290,0.210381,0.329678,-1.465281,-0.590598,-0.827441,-10.920460,215.882388,13.197886,-10.836535,1.000000,1.000000,
140675287,216.391950,216.391950,34.163223,3,-0.437622,0.071228,-0.297546,-0.845520,-0.061504,-0.061009,-0.848950,-0.032960,-0.500388,-10.496394,216.123218,13.139109,-10.613445,1.000000,1.000000,
140684665,216.812208,216.812208,34.163223,3,-0.441101,0.072327,-0.297241,-0.843689,0.194290,0.163559,-1.380299,-0.435881,-0.721936,-10.926100,216.374979,13.115992,-10.818502,1.000000,1.000000,
140694372,215.671339,215.671339,34.167752,3,-0.444641,0.073425,-0.296875,-0.841919,-0.071935,-0.087525,-1.157153,-0.050818,-0.667203,-10.754460,216.370094,12.931560,-10.776502,1.000000,1.000000,
140705342,216.511793,216.511793,34.167752,3,-0.448120,0.074524,-0.296509,-0.840088,0.102093,-0.152928,-0.954360,-0.077852,-0.407278,-10.679756,216.537848,12.830395,-10.713049,1.000000,1.000000,
140714816,216.692365,216.692365,34.158693,3,-0.451660,0.075623,-0.296082,-0.838257,0.081962,0.329638,-1.489537,-0.523730,-0.924431,-10.899408,216.687845,12.744886,-10.835275,1.000000,1.000000,
140725579,216.482770,216.482770,34.158693,3,-0.455200,0.076721,-0.295715,-0.836365,-0.122604,-0.244150,-0.646959,0.177138,-0.357458,-10.377098,216.786025,12.609685,-10.534772,1.000000,1.000000,
140734839,216.812208,216.812208,34.163223,3,-0.458679,0.077820,-0.295288,-0.834473,0.051417,0.127277,-1.257181,-0.310800,-0.720910,-10.788766,216.907220,12.512703,-10.701358,1.000000,1.000000,
140744424,217.323835,217.323835,34.158693,3,-0.462097,0.078857,-0.294922,-0.832642,-0.129975,0.058321,-0.828856,-0.091529,-0.580768,-10.396112,217.104656,12.460405,-10.501155,1.000000,1.000000,
140755554,217.143262,217.143262,34.167752,3,-0.465515,0.080017,-0.294556,-0.830750,0.044989,0.016910,-0.883201,-0.167799,-0.472353,-10.524072,217.249916,12.347639,-10.516186,1.000000,1.000000,
140764783,217.653852,217.653852,34.163223,3,-0.468811,0.081116,-0.294189,-0.828918,0.010797,0.334660,-1.273828,-0.465790,-0.845192,-10.705391,217.439053,12.295355,-10.640278,1.000000,1.000000,
140774512,217.533979,217.533979,34.158693,3,-0.472046,0.082153,-0.293823,-0.827087,0.011437,0.020725,-0.715779,-0.127615,-0.406943,-10.380944,217.575959,12.205125,-10.470188,1.000000,1.000000,
140785401,218.165510,218.165510,34.158693,3,-0.475037,0.083130,-0.293518,-0.825378,-0.109947,0.372847,-1.356445,-0.449263,-0.988009,-10.709400,217.818594,12.155209,-10.627078,1.000000,1.000000,
140794889,217.353406,217.353406,34.167752,3,-0.477783,0.084106,-0.293274,-0.823792,0.019936,0.340526,-1.005772,-0.434237,-0.683524,-10.492391,217.846343,12.002204,-10.538743,1.000000,1.000000,
140805746,217.564100,217.564100,34.167752,3,-0.480591,0.085083,-0.293030,-0.822144,-0.113030,0.056522,-0.907603,-0.117349,-0.619812,-10.471574,217.923175,11.856397,-10.494690,1.000000,1.000000,
140815182,218.044599,218.044599,34.154164,3,-0.483398,0.086060,-0.292847,-0.820435,0.136509,0.332963,-1.328996,-0.543410,-0.766452,-10.802754,218.057300,11.768379,-10.696739,1.000000,1.000000,
140824795,218.284864,218.284864,34.163223,3,-0.486206,0.086975,-0.292603,-0.818787,0.072860,0.101403,-0.632586,-0.216254,-0.342031,-10.298263,218.212567,11.695352,-10.435390,1.000000,1.000000,
140835834,217.774763,217.774763,34.167752,3,-0.488892,0.087952,-0.292480,-0.817139,0.085165,0.391152,-1.388953,-0.573843,-0.857374,-10.810595,218.259014,11.526644,-10.681477,1.000000,1.000000,
140845080,217.954816,217.954816,34.158693,3,-0.491516,0.088867,-0.292358,-0.815491,-0.102963,0.201721,-0.596793,-0.207950,-0.491393,-10.156616,218.308209,11.397843,-10.337239,1.000000,1.000000,
140854806,217.865064,217.865064,34.163223,3,-0.494019,0.089783,-0.292297,-0.813904,-0.047110,0.434614,-1.233974,-0.527117,-0.884822,-10.614104,218.335615,11.244281,-10.518828,1.000000,1.000000,
140865615,218.495008,218.495008,34.163223,3,-0.496460,0.090698,-0.292236,-0.812317,-0.006245,0.041870,-0.656453,-0.128656,-0.391177,-10.319606,218.486402,11.150681,-10.388164,1.000000,1.000000,
140875113,219.307203,219.307203,34.154164,3,-0.498901,0.091553,-0.292236,-0.810730,-0.148708,-0.020306,-0.811415,-0.023619,-0.564798,-10.399462,218.745541,11.146221,-10.395570,1.000000,1.000000,
140886086,218.795484,218.795484,34.158693,3,-0.501343,0.092468,-0.292297,-0.809143,0.077176,0.458159,-1.040846,-0.589966,-0.682091,-10.504976,218.876566,11.036670,-10.467326,1.000000,1.000000,
140895300,219.307203,219.307203,34.154164,3,-0.503662,0.093384,-0.292419,-0.807556,-0.219716,0.044275,-0.584475,-0.021156,-0.515513,-10.152777,219.058502,10.993105,-10.261021,1.000000,1.000000,
140904882,218.284864,218.284864,34.163223,3,-0.505981,0.094360,-0.292603,-0.805908,0.052133,0.335843,-1.212906,-0.496302,-0.759525,-10.679534,219.018544,10.802789,-10.535514,1.000000,1.000000,
140916032,219.427106,219.427106,34.158693,3,-0.508362,0.095276,-0.292847,-0.804199,-0.220454,0.063621,-0.603897,-0.046107,-0.531798,-10.162849,219.214879,10.735386,-10.291093,1.000000,1.000000,
140925415,219.366895,219.366895,34.172282,3,-0.510681,0.096191,-0.293091,-0.802551,-0.034298,0.016718,-0.905765,-0.139089,-0.548725,-10.514513,219.343608,10.654187,-10.437626,1.000000,1.000000,
140935157,219.036298,219.036298,34.167752,3,-0.513062,0.097168,-0.293396,-0.800781,-0.012109,0.511008,-1.350019,-0.644600,-0.940009,-10.693850,219.389360,10.515014,-10.605677,1.000000,1.000000,
140948018,219.457197,219.457197,34.167752,3,-0.515503,0.098206,-0.293701,-0.798950,-0.088831,-0.099176,-0.791266,-0.012524,-0.470718,-10.431840,219.536456,10.388351,-10.491663,1.000000,1.000000,
140956763,220.899030,220.899030,34.158693,3,-0.517761,0.099121,-0.294128,-0.797241,0.010312,0.492905,-1.270352,-0.654157,-0.840483,-10.645070,219.882531,10.457795,-10.592270,1.000000,1.000000,
140970787,220.388288,220.388288,34.163223,3,-0.519836,0.100037,-0.294556,-0.795593,-0.118968,-0.103079,-0.524781,0.043444,-0.336913,-10.202959,220.123216,10.372644,-10.336931,1.000000,1.000000,
140978666,220.358716,220.358716,34.154164,3,-0.521851,0.100952,-0.295105,-0.793945,-0.082550,0.169653,-1.151842,-0.313593,-0.746995,-10.623750,220.248860,10.317611,-10.525045,1.000000,1.000000,
140987271,220.478620,220.478620,34.158693,3,-0.523926,0.101929,-0.295715,-0.792236,-0.014081,0.274675,-0.859727,-0.390768,-0.555056,-10.384378,220.380322,10.255246,-10.432785,1.000000,1.000000,
140996979,220.779157,220.779157,34.154164,3,-0.525940,0.102844,-0.296326,-0.790588,-0.047798,0.000909,-0.728172,-0.120129,-0.431462,-10.359929,220.554046,10.199985,-10.385000,1.000000,1.000000,
141005941,219.967359,219.967359,34.163223,3,-0.528015,0.103882,-0.296997,-0.788757,-0.025982,0.395862,-1.194455,-0.527837,-0.818146,-10.601449,220.535298,10.038618,-10.526964,1.000000,1.000000,
141016605,219.967359,219.967359,34.163223,3,-0.530090,0.104919,-0.297791,-0.786987,-0.116872,-0.012546,-0.453330,-0.011063,-0.354476,-10.112142,220.535576,9.867523,-10.254898,1.000000,1.000000,
141025864,220.809247,220.809247,34.163223,3,-0.532166,0.105957,-0.298584,-0.785156,-0.077448,0.054011,-1.015457,-0.167965,-0.666052,-10.550705,220.677662,9.800646,-10.448907,1.000000,1.000000,
141035481,220.809247,220.809247,34.163223,3,-0.534119,0.106995,-0.299500,-0.783325,-0.077893,0.420387,-0.987563,-0.506075,-0.743327,-10.400744,220.796035,9.715294,-10.417318,1.000000,1.000000,
141046378,221.320539,221.320539,34.158693,3,-0.536072,0.108093,-0.300415,-0.781494,-0.199448,0.064430,-0.563508,-0.068475,-0.501325,-10.123273,220.999422,9.663142,-10.224461,1.000000,1.000000,
141055609,220.508710,220.508710,34.167752,3,-0.538086,0.109131,-0.301331,-0.779602,-0.100496,0.497832,-1.065926,-0.576278,-0.829555,-10.420473,220.996360,9.511159,-10.353021,1.000000,1.000000,
141065352,220.929670,220.929670,34.167752,3,-0.540100,0.110291,-0.302307,-0.777649,-0.232878,0.028683,-0.396954,0.004162,-0.421544,-9.987705,221.076097,9.406368,-10.113422,1.000000,1.000000,
141076367,221.110334,221.110334,34.158693,3,-0.541992,0.111389,-0.303345,-0.775757,-0.163651,0.207936,-1.223177,-0.312448,-0.900174,-10.607488,221.185451,9.293578,-10.437464,1.000000,1.000000,
141085793,221.350660,221.350660,34.167752,3,-0.543823,0.112488,-0.304443,-0.773865,-0.147123,0.347373,-0.723952,-0.372412,-0.624820,-10.179208,221.303538,9.216613,-10.268081,1.000000,1.000000,
141096601,221.230207,221.230207,34.163223,3,-0.545654,0.113647,-0.305603,-0.771973,-0.043488,0.248654,-1.148750,-0.391826,-0.772604,-10.600282,221.388789,9.093873,-10.485962,1.000000,1.000000,
141106052,220.809247,220.809247,34.163223,3,-0.547485,0.114807,-0.306763,-0.770020,-0.222970,0.220562,-0.659988,-0.219700,-0.618952,-10.128019,221.365782,8.931708,-10.251201,1.000000,1.000000,
141115670,221.740491,221.740491,34.158693,3,-0.549377,0.116089,-0.308044,-0.768005,-0.248568,0.058250,-0.852773,-0.103475,-0.723407,-10.317879,221.521328,8.875000,-10.294932,1.000000,1.000000,
141126351,221.350660,221.350660,34.167752,3,-0.551331,0.117371,-0.309326,-0.765869,-0.098162,0.400232,-1.008530,-0.497703,-0.772336,-10.398862,221.583579,8.744719,-10.363097,1.000000,1.000000,
141135800,221.440443,221.440443,34.163223,3,-0.553284,0.118713,-0.310608,-0.763733,-0.401198,-0.219362,-0.467708,0.270330,-0.553133,-10.023038,221.638980,8.633737,-10.140063,1.000000,1.000000,
141145599,222.281934,222.281934,34.163223,3,-0.555054,0.120056,-0.312012,-0.761658,-0.138579,0.320362,-1.051334,-0.420373,-0.805541,-10.434922,221.843377,8.604240,-10.333449,1.000000,1.000000,
141156669,222.191602,222.191602,34.167752,3,-0.556885,0.121521,-0.313416,-0.759521,-0.235646,0.046726,-0.475944,-0.038962,-0.483784,-10.030591,222.003223,8.532368,-10.134812,1.000000,1.000000,
141166055,222.161481,222.161481,34.158693,3,-0.558594,0.122925,-0.314819,-0.757446,-0.181583,-0.016057,-0.624137,-0.022909,-0.520557,-10.188016,222.112495,8.454968,-10.169706,1.000000,1.000000,
141176857,222.071668,222.071668,34.163223,3,-0.560364,0.124390,-0.316345,-0.755310,-0.114395,0.501586,-0.897826,-0.580073,-0.736514,-10.256775,222.195577,8.339561,-10.226812,1.000000,1.000000,
141186321,222.582502,222.582502,34.158693,3,-0.562073,0.125916,-0.317871,-0.753113,-0.111891,-0.088626,-0.316076,0.062168,-0.269050,-10.009831,222.346538,8.289567,-10.084499,1.000000,1.000000,
141195871,221.470563,221.470563,34.172282,3,-0.563843,0.127502,-0.319397,-0.750854,-0.074861,0.534912,-1.173249,-0.668448,-0.878390,-10.469325,222.261250,8.089688,-10.336898,1.000000,1.000000,
141206827,222.492170,222.492170,34.163223,3,-0.565552,0.129089,-0.321045,-0.748657,-0.000704,0.114795,-0.486156,-0.187807,-0.322499,-10.127181,222.392518,8.004740,-10.199350,1.000000,1.000000,
141216258,222.612623,222.612623,34.167752,3,-0.567200,0.130737,-0.322693,-0.746399,-0.112353,0.056957,-0.887747,-0.174887,-0.651511,-10.385178,222.508761,7.932085,-10.321228,1.000000,1.000000,
141226009,222.191602,222.191602,34.167752,3,-0.568787,0.132446,-0.324402,-0.744080,-0.057129,0.500317,-0.945436,-0.614905,-0.710969,-10.311453,222.526254,7.795464,-10.314818,1.000000,1.000000,
141236900,223.033674,223.033674,34.167752,3,-0.570312,0.134155,-0.326172,-0.741821,-0.113709,-0.159162,-0.377165,0.115846,-0.301799,-10.070269,222.705582,7.743155,-10.154424,1.000000,1.000000,
141246407,222.492170,222.492170,34.163223,3,-0.571777,0.135864,-0.328003,-0.739624,-0.097243,0.321544,-0.990412,-0.443638,-0.754695,-10.375209,222.738747,7.619852,-10.299231,1.000000,1.000000,
141257096,223.033674,223.033674,34.167752,3,-0.573120,0.137573,-0.329895,-0.737427,-0.114225,0.008973,-0.373472,-0.041095,-0.333812,-10.008497,222.874875,7.546387,-10.108546,1.000000,1.000000,
141266590,222.281934,222.281934,34.163223,3,-0.574524,0.139221,-0.331848,-0.735168,-0.145602,-0.038132,-0.722498,-0.050786,-0.574121,-10.258567,222.834993,7.380546,-10.206943,1.000000,1.000000,
141276161,223.214368,223.214368,34.158693,3,-0.575806,0.140930,-0.333801,-0.732910,-0.047016,0.298704,-0.672014,-0.390072,-0.511107,-10.169933,222.976178,7.326462,-10.182668,1.000000,1.000000,
141286938,222.702955,222.702955,34.163223,3,-0.577087,0.142639,-0.335815,-0.730652,-0.230483,-0.088697,-0.339994,0.085043,-0.386341,-9.937849,223.003415,7.188371,-10.022100,1.000000,1.000000,
141296329,223.214368,223.214368,34.158693,3,-0.578369,0.144409,-0.337830,-0.728333,0.017723,0.398565,-1.064037,-0.575773,-0.727995,-10.452011,223.109939,7.114300,-10.304064,1.000000,1.000000,
141306153,223.303602,223.303602,34.154164,3,-0.579590,0.146179,-0.339905,-0.726013,-0.173981,0.048282,-0.394489,-0.073220,-0.399945,-9.964471,223.215606,7.038354,-10.081335,1.000000,1.000000,
141316872,224.085584,224.085584,34.167752,3,-0.580811,0.148010,-0.341980,-0.723755,-0.065556,0.154405,-0.943450,-0.305159,-0.695267,-10.389073,223.453316,7.025496,-10.283167,1.000000,1.000000,
141326511,223.124006,223.124006,34.163223,3,-0.581970,0.149841,-0.344116,-0.721436,-0.060283,0.425353,-0.758880,-0.529660,-0.593991,-10.167168,223.458902,6.889731,-10.207088,1.000000,1.000000,
141337295,223.634351,223.634351,34.158693,3,-0.583191,0.151672,-0.346252,-0.719055,-0.175435,-0.140938,-0.458185,0.091242,-0.431166,-10.058789,223.565483,6.801183,-10.109823,1.000000,1.000000,
141346788,223.965101,223.965101,34.163223,3,-0.584290,0.153564,-0.348450,-0.716675,0.024093,0.422473,-0.874970,-0.575974,-0.607711,-10.302268,223.704427,6.749468,-10.236040,1.000000,1.000000,
141356416,224.446973,224.446973,34.149634,3,-0.585266,0.155334,-0.350708,-0.714355,-0.093379,-0.158788,-0.356632,0.108032,-0.301747,-10.047475,223.907952,6.737468,-10.112363,1.000000,1.000000,
141367468,223.965101,223.965101,34.163223,3,-0.586243,0.157227,-0.352966,-0.712036,0.003026,0.441445,-0.914925,-0.590776,-0.651984,-10.300722,223.992480,6.630186,-10.235901,1.000000,1.000000,
141376793,224.266248,224.266248,34.158693,3,-0.587158,0.159058,-0.355286,-0.709717,-0.093774,-0.030214,-0.353808,-0.015942,-0.311501,-9.994343,224.105161,6.568738,-10.077470,1.000000,1.000000,
141386506,224.476514,224.476514,34.158693,3,-0.588013,0.160889,-0.357666,-0.707458,-0.053720,-0.056013,-0.620606,-0.058278,-0.472089,-10.212643,224.237985,6.511815,-10.166124,1.000000,1.000000,
141397253,223.874769,223.874769,34.167752,3,-0.588867,0.162720,-0.359985,-0.705078,0.036697,0.182820,-0.532922,-0.291316,-0.357569,-10.127361,224.239377,6.361832,-10.140702,1.000000,1.000000,
141406706,224.296339,224.296339,34.167752,3,-0.589783,0.164612,-0.362366,-0.702698,-0.129760,-0.117150,-0.267765,0.092865,-0.268612,-9.934252,224.309747,6.274536,-10.005298,1.000000,1.000000,
141417575,224.596998,224.596998,34.163223,3,-0.590637,0.166504,-0.364807,-0.700256,0.019572,0.459210,-1.003165,-0.639162,-0.712636,-10.351792,224.431116,6.194777,-10.232551,1.000000,1.000000,
141426994,224.476514,224.476514,34.158693,3,-0.591431,0.168396,-0.367249,-0.697815,-0.031709,-0.048221,-0.262860,0.000647,-0.207972,-9.969720,224.497538,6.106209,-10.060169,1.000000,1.000000,
141436702,224.175916,224.175916,34.163223,3,-0.592224,0.170288,-0.369690,-0.695374,-0.015313,0.234244,-0.900308,-0.400280,-0.661078,-10.314120,224.496118,5.969436,-10.226729,1.000000,1.000000,
141447662,224.506666,224.506666,34.167752,3,-0.593079,0.172180,-0.372192,-0.692932,-0.094693,0.048474,-0.371926,-0.100676,-0.334497,-9.960826,224.562931,5.861347,-10.052331,1.000000,1.000000,
141457133,224.476514,224.476514,34.158693,3,-0.593872,0.174133,-0.374634,-0.690369,-0.117892,-0.122208,-0.495432,0.040580,-0.433115,-10.081424,224.601804,5.755881,-10.071413,1.000000,1.000000,
141466827,225.107435,225.107435,34.158693,3,-0.594727,0.176086,-0.377136,-0.687805,0.042013,0.213195,-0.948352,-0.408776,-0.660120,-10.379511,224.751750,5.712890,-10.273482,1.000000,1.000000,
141477629,224.296339,224.296339,34.167752,3,-0.595459,0.178040,-0.379578,-0.685303,-0.108168,-0.086236,-0.206868,0.064449,-0.222541,-9.881068,224.727624,5.554399,-10.016112,1.000000,1.000000,
141487125,223.784376,223.784376,34.172282,3,-0.596130,0.179993,-0.382141,-0.682800,-0.007977,-0.167347,-0.730512,0.008099,-0.544200,-10.310958,224.603242,5.347813,-10.209496,1.000000,1.000000,
