Code compiled on Mar 21 2026 at 12:11:29
﻿Simulation Mode (T/F),F
Airbrakes Enabled (T/F),T
Log File Name,QF
Sim File Name (if applicable),Sim
Burnout Mass (kg),0.6
Air Density (kg/m^3),1.193
Rocket CD,0.5
Airbrake CD,0.7
Rocket Area (m^2),0.00243
Kalman Model Y STD,1
Kalman Model V STD,0.4
Kalman Model A STD,5
Kalman Measurement Y STD,5
Kalman Measurement A STD,2
Target Apogee (m),225
Launch Acceleration Threshold (m/s^2),40
Coast Lockout (s),1.5
KP (1/s),0.24
Altimeter Lockout (s),90
Control Max Velocity (dep/s),5

Calibration point: 293.222158
Time (us),RAW Altitude AGL (m),Corrected Altitude AGL (m),Temperature (deg C),Mode,IMU Quat W,IMU Quat X,IMU Quat Y,IMU Quat Z,IMU Raw Local Acceleration X,IMU Raw Local Acceleration Y,IMU Raw Local Acceleration Z,IMU Global Acceleration x,IMU Global Acceleration y,IMU Global Acceleration z,State Estimation y,State Estimation v,State Estimation a,Commanded servo deployment,Real servo deployment,
157716822,0.506144,0.506144,35.653256,1,0.736694,-0.023315,0.008240,-0.675781,0.756380,-0.049127,10.161507,0.455114,-0.532051,0.364438,0.149034,0.134169,0.272100,0.000000,0.000000,
157726383,-0.320913,-0.320913,35.653256,2,0.736694,-0.023315,0.008240,-0.675781,8.905611,1.100280,95.677492,6.037057,-6.565591,85.881416,0.069952,0.907759,56.420582,0.000000,0.000000,
157737264,-0.554678,-0.554678,35.644200,2,0.736633,-0.023315,0.008240,-0.675781,10.259361,0.558242,100.479690,5.824124,-7.848334,90.728636,-0.030296,1.807317,78.922163,0.000000,0.000000,
157746984,0.065958,0.065958,35.644200,2,0.736755,-0.023193,0.008423,-0.675720,4.850965,-4.618809,105.055237,0.414058,-2.839509,95.428045,0.010576,2.750551,89.747857,0.000000,0.000000,
157758046,-0.320913,-0.320913,35.653256,2,0.737305,-0.023010,0.008545,-0.675110,7.818924,-0.139733,103.373341,5.060099,-5.485820,93.598002,-0.015259,3.744487,92.273046,0.000000,0.000000,
157767505,-0.050405,-0.050405,35.639671,2,0.732788,-0.024658,0.008179,-0.679993,4.394214,2.452352,105.116262,7.554774,-1.571432,95.150108,0.017962,4.641356,94.160021,0.000000,0.000000,
157778129,-0.230917,-0.230917,35.648728,2,0.728516,-0.024231,0.007751,-0.684509,4.410489,0.694484,106.544928,5.707082,-1.731099,96.669033,0.026128,5.637156,95.805603,0.000000,0.000000,
157787571,0.596140,0.596140,35.648728,2,0.724304,-0.023438,0.007324,-0.689087,4.082631,-2.020486,104.402178,2.667237,-1.688110,94.652138,0.190512,6.601495,95.049084,0.000000,0.000000,
157797122,-0.024557,-0.024557,35.648728,2,0.717773,-0.023376,0.007202,-0.695801,7.079846,0.014565,105.313722,4.746215,-4.602783,95.542928,0.217596,7.487553,95.372980,0.000000,0.000000,
157808078,0.775645,0.775645,35.639671,2,0.708374,-0.023682,0.006592,-0.705383,4.577570,1.385012,98.874593,5.632270,-2.178911,89.004233,0.409458,8.533956,91.195919,0.000000,0.000000,
157817313,1.099955,1.099955,35.644200,2,0.699158,-0.023621,0.005676,-0.714539,0.397381,-2.081142,106.840741,2.363938,2.308340,97.009160,0.622306,9.518601,95.008646,0.000000,0.000000,
157827150,0.479258,0.479258,35.644200,2,0.689209,-0.023071,0.005066,-0.724182,8.432208,-0.336051,105.788762,3.521712,-5.823228,96.106195,0.693796,10.446330,95.728494,0.000000,0.000000,
157838201,1.513804,1.513804,35.644200,2,0.676270,-0.022888,0.004578,-0.736328,5.591004,0.703587,108.062687,4.529949,-3.021408,98.272192,0.969309,11.631931,97.396829,0.000000,0.000000,
157847592,0.893046,0.893046,35.644200,2,0.661194,-0.023071,0.003906,-0.749817,4.209018,3.165437,103.797466,6.734122,-2.020361,93.892316,1.068194,12.502656,95.098328,0.000000,0.000000,
157857271,1.099955,1.099955,35.644200,2,0.645569,-0.022827,0.003113,-0.763367,-3.695001,6.212013,98.011746,10.537215,5.029738,87.781019,1.198972,13.355928,90.299133,0.000000,0.000000,
157868351,1.189463,1.189463,35.639671,2,0.627991,-0.022522,0.002258,-0.777893,1.300878,9.038623,96.611150,12.212923,-0.792217,86.466804,1.350321,14.314621,87.785628,0.000000,0.000000,
157877573,1.396372,1.396372,35.639671,2,0.612549,-0.022156,0.001709,-0.790100,3.503916,0.810280,100.420610,3.636436,-1.141397,90.613071,1.494967,15.157370,89.640060,0.000000,0.000000,
157888478,1.810221,1.810221,35.639671,2,0.606445,-0.021362,0.001892,-0.794861,-4.724306,-4.224303,106.933847,1.046767,8.122037,97.009138,1.725540,16.251028,94.473210,0.000000,0.000000,
157897613,1.810221,1.810221,35.639671,2,0.610413,-0.020874,0.002563,-0.791809,3.511507,3.053852,108.934835,5.991947,-1.839820,99.055050,1.894244,17.168617,97.478296,0.000000,0.000000,
157907424,1.720194,1.720194,35.644200,2,0.619080,-0.020813,0.003418,-0.785034,0.993038,-6.832178,106.221206,-2.957238,2.789391,96.569364,2.034634,18.094735,96.882155,0.000000,0.000000,
157918182,1.513804,1.513804,35.644200,2,0.623413,-0.020691,0.003540,-0.781616,-0.062221,-3.393061,103.297153,0.497039,2.907485,93.512378,2.136790,19.038137,94.672021,0.000000,0.000000,
157927783,1.720194,1.720194,35.644200,2,0.621826,-0.022095,0.004517,-0.782837,10.238457,6.093035,105.368580,7.847568,-9.202615,95.548005,2.245792,19.903953,95.246550,0.000000,0.000000,
157937515,2.429972,2.429972,35.639671,2,0.619324,-0.023254,0.004944,-0.784790,4.578133,2.624341,109.368538,6.140816,-2.766474,99.487476,2.478956,20.895022,98.028042,0.000000,0.000000,
157948576,2.547404,2.547404,35.644200,2,0.626343,-0.022400,0.002991,-0.779236,5.765612,1.223233,108.347794,4.144038,-3.362204,98.576957,2.728982,21.993514,98.388059,0.000000,0.000000,
157957791,3.141337,3.141337,35.635143,2,0.635742,-0.020752,0.002747,-0.771606,5.045046,1.062041,107.635474,3.900367,-2.779254,97.854256,3.013220,22.946449,98.037956,0.000000,0.000000,
157967655,2.726938,2.726938,35.635143,2,0.643188,-0.020264,0.003296,-0.765442,2.903983,2.280295,109.164405,5.590084,-0.960206,99.281168,3.190721,23.890594,98.853339,0.000000,0.000000,
157978352,3.581644,3.581644,35.644200,2,0.648804,-0.020264,0.004089,-0.760681,3.931308,1.499338,107.547220,4.738981,-1.958075,97.708792,3.525210,24.983913,98.102668,0.000000,0.000000,
157987950,3.374705,3.374705,35.644200,2,0.650574,-0.020752,0.004272,-0.759155,4.062950,2.994251,108.119983,6.335815,-2.258542,98.229655,3.741278,25.908128,98.185954,0.000000,0.000000,
157997652,4.408488,4.408488,35.644200,2,0.650879,-0.022278,0.005249,-0.758850,3.538950,1.818915,106.727988,5.594238,-1.533578,96.844338,4.122343,26.929393,97.306033,0.000000,0.000000,
158008715,4.202036,4.202036,35.644200,2,0.651184,-0.024841,0.006653,-0.758484,3.882859,2.585275,105.676417,6.859059,-1.880488,95.737006,4.441019,27.998946,96.276957,0.000000,0.000000,
158018074,4.885599,4.885599,35.630614,2,0.651489,-0.028564,0.008850,-0.758057,3.787136,2.534088,106.028798,7.743911,-1.601836,96.034015,4.790739,28.952822,96.117621,0.000000,0.000000,
158029872,4.705515,4.705515,35.639671,2,0.651672,-0.033264,0.011475,-0.757690,3.588707,2.475625,104.236585,8.843259,-1.187449,94.152551,5.122783,30.054584,94.828793,0.000000,0.000000,
158038703,5.002543,5.002543,35.635143,2,0.651733,-0.039001,0.014771,-0.757263,3.936046,3.239810,104.433936,10.785966,-1.401717,94.186675,5.369238,30.870680,94.407647,0.000000,0.000000,
158048167,5.325968,5.325968,35.639671,2,0.651611,-0.045654,0.018616,-0.756958,3.582237,3.142570,103.547365,12.239354,-0.768783,93.131351,5.657397,31.746712,93.570564,0.000000,0.000000,
158059749,5.532969,5.532969,35.639671,2,0.651245,-0.053223,0.022888,-0.756653,3.646866,3.715262,102.630553,14.625506,-0.566047,91.943427,6.007825,32.797688,92.503375,0.000000,0.000000,
158068557,6.360483,6.360483,35.639671,2,0.650574,-0.061646,0.027710,-0.756470,3.403793,3.639207,101.827564,16.234216,-0.016440,90.848865,6.366378,33.640710,91.418235,0.000000,0.000000,
158078052,6.981547,6.981547,35.639671,2,0.649536,-0.070740,0.032898,-0.756348,3.184661,4.263099,100.941735,18.809126,0.443365,89.516255,6.805134,34.565330,90.170788,0.000000,0.000000,
158089080,7.628550,7.628550,35.648728,2,0.648193,-0.080505,0.038513,-0.756226,3.213000,4.750622,101.538254,21.584218,0.764681,89.574020,7.346241,35.652439,89.779390,0.000000,0.000000,
158098545,7.925150,7.925150,35.644200,2,0.646484,-0.090881,0.044373,-0.756226,2.690455,4.986173,100.920817,24.099826,1.629501,88.350991,7.796234,36.559180,88.842550,0.000000,0.000000,
158108243,9.373545,9.373545,35.644200,2,0.644409,-0.101685,0.050415,-0.756226,2.761856,5.554108,99.340061,26.675679,1.810380,86.072632,8.450567,37.584844,87.025854,0.000000,0.000000,
158119009,9.877787,9.877787,35.639671,2,0.641907,-0.112915,0.056641,-0.756287,2.307158,5.989807,99.294340,29.570016,2.601324,85.167581,9.127850,38.674242,85.807076,0.000000,0.000000,
158128432,10.408976,10.408976,35.644200,2,0.639038,-0.124390,0.062805,-0.756409,2.233145,6.475814,98.906052,32.369931,2.990544,83.861327,9.736305,39.620317,84.530926,0.000000,0.000000,
158139229,11.119364,11.119364,35.639671,2,0.635620,-0.135986,0.068909,-0.756775,1.776118,6.775659,97.628223,34.753577,3.709359,81.619830,10.428265,40.669391,82.621634,0.000000,0.000000,
158148529,12.271494,12.271494,35.644200,2,0.631287,-0.147644,0.074768,-0.757690,1.670283,7.141334,97.156889,37.310158,4.092979,80.116618,11.155730,41.639022,80.978680,0.000000,0.000000,
158158140,12.802286,12.802286,35.648728,2,0.625366,-0.159302,0.080078,-0.759705,1.180769,7.871797,96.125320,39.970054,4.690670,77.853872,11.868133,42.585496,78.929222,0.000000,0.000000,
158169165,13.630381,13.630381,35.648728,2,0.617126,-0.171021,0.084595,-0.763367,0.241701,8.145006,96.247615,42.568507,5.821962,76.705717,12.672801,43.642944,77.470901,0.000000,0.000000,
158178628,14.755350,14.755350,35.644200,2,0.605774,-0.182800,0.088013,-0.769348,-0.689838,8.390552,96.012744,44.926475,6.824553,75.199415,13.479844,44.607752,75.981114,0.000000,0.000000,
158188333,16.411417,16.411417,35.644200,2,0.590759,-0.194580,0.090027,-0.777832,-1.430291,7.968850,94.689384,46.096257,7.592689,72.957468,14.465836,45.668792,73.998011,0.000000,0.000000,
158199041,17.329935,17.329935,35.639671,2,0.571228,-0.206482,0.090332,-0.789246,-3.296058,8.015043,94.665659,48.413570,9.270953,71.476209,15.496118,46.777953,72.344051,0.000000,0.000000,
158208488,18.897288,18.897288,35.644200,2,0.546204,-0.218445,0.088318,-0.803833,-4.375041,7.492427,93.189627,49.353858,10.106423,69.079301,16.579018,47.842329,70.202818,0.000000,0.000000,
158218039,19.789103,19.789103,35.630614,2,0.514282,-0.230469,0.083557,-0.821838,-5.523962,6.691003,92.507860,50.409092,11.047682,67.467491,17.640715,48.871358,68.408816,0.000000,0.000000,
158229052,21.175944,21.175944,35.644200,2,0.474304,-0.242310,0.075562,-0.843018,-8.293396,6.724771,91.312850,52.568855,12.667443,64.549558,18.845728,50.004453,65.877662,0.000000,0.000000,
158238656,22.806071,22.806071,35.635143,2,0.424622,-0.253723,0.063782,-0.866760,-9.441577,5.797762,91.213117,53.957020,13.167522,63.395777,20.071830,51.093023,64.249889,0.000000,0.000000,
158249583,23.752146,23.752146,35.639671,2,0.365234,-0.263977,0.048523,-0.891357,-10.750892,4.143353,89.476188,54.244742,13.773134,60.951616,21.324308,52.202396,62.086670,0.000000,0.000000,
158259002,24.373209,24.373209,35.639671,2,0.298462,-0.272400,0.030823,-0.914185,-10.876929,3.034947,89.397815,55.093234,13.132275,60.278492,22.390827,53.141738,60.900756,0.000000,0.000000,
158268588,24.878702,24.878702,35.635143,2,0.228271,-0.278381,0.012268,-0.932861,-10.595743,1.714449,88.288105,54.912345,12.247258,59.077550,23.369448,54.007307,59.704982,0.000000,0.000000,
158279343,24.815470,24.815470,35.648728,2,0.157776,-0.281677,-0.005615,-0.946411,-9.943765,1.019012,86.897730,54.352295,10.623703,57.909463,24.224810,54.803275,58.527363,0.000000,0.000000,
158288704,24.995371,24.995371,35.639671,2,0.089966,-0.282471,-0.021301,-0.954834,-9.026016,0.283412,85.525553,53.293321,8.997848,57.093253,24.884799,55.430447,57.586778,0.000000,0.000000,
158298480,25.086100,25.086100,35.635143,2,0.025696,-0.280823,-0.033997,-0.958801,-8.613988,-0.060762,84.332881,52.503294,7.027968,56.384169,25.467068,56.005699,56.798025,0.000000,0.000000,
158309460,25.527354,25.527354,35.644200,2,-0.035095,-0.277161,-0.043640,-0.959167,-7.742580,-0.044848,83.411800,51.137176,4.694962,56.379514,26.096700,56.632085,56.523537,0.000000,0.000000,
158318913,25.292460,25.292460,35.635143,2,-0.092163,-0.271729,-0.050049,-0.956665,-7.160434,0.157471,82.375823,49.543295,2.143041,56.371500,26.483676,57.067572,56.423817,0.000000,0.000000,
158328637,25.707255,25.707255,35.635143,2,-0.146790,-0.264648,-0.053711,-0.951599,-6.788601,0.546171,81.237587,47.605267,-0.619009,56.377218,26.895696,57.523024,56.393251,0.000000,0.000000,
158339463,25.617563,25.617563,35.639671,2,-0.199402,-0.256226,-0.054932,-0.944214,-6.265784,0.982697,80.502078,45.318841,-3.318035,56.957861,27.282082,57.987600,56.763556,0.000000,0.000000,
158348910,25.086100,25.086100,35.635143,2,-0.250977,-0.246460,-0.054138,-0.934509,-5.738854,1.623630,79.622550,42.441485,-6.052770,57.562254,27.420583,58.266694,57.287387,0.000000,0.000000,
158359853,25.112559,25.112559,35.644200,2,-0.301514,-0.235535,-0.051575,-0.922485,-5.738999,1.997342,79.085660,39.818567,-8.664495,58.251461,27.628722,58.628814,57.919684,0.000000,0.000000,
158369267,25.797495,25.797495,35.630614,2,-0.351929,-0.223450,-0.047546,-0.907715,-5.432755,2.884598,77.232624,35.666653,-11.224068,58.053596,27.839644,58.953532,58.007504,0.000000,0.000000,
158378975,25.824442,25.824442,35.639671,2,-0.402649,-0.210266,-0.042419,-0.889893,-5.918309,3.429318,76.296207,32.237186,-13.808274,58.301186,28.036883,59.278882,58.200113,0.000000,0.000000,
158389866,26.031870,26.031870,35.639671,2,-0.453735,-0.196289,-0.036499,-0.868469,-6.254378,4.179458,75.736209,28.283669,-16.153810,58.985061,28.309952,59.683071,58.714928,0.000000,0.000000,
158399327,26.950724,26.950724,35.635143,2,-0.505493,-0.181702,-0.030090,-0.842957,-6.671835,4.729862,75.069879,24.113478,-18.044559,59.443241,28.622331,60.081776,59.192600,0.000000,0.000000,
158408884,28.519541,28.519541,35.639671,2,-0.558044,-0.166687,-0.023499,-0.812561,-8.301736,4.756334,74.191557,20.426339,-20.346715,59.220687,29.179970,60.635513,59.211021,0.000000,0.000000,
158419964,29.348368,29.348368,35.639671,2,-0.611206,-0.151550,-0.017090,-0.776611,-10.166281,4.946425,73.070872,16.151810,-22.547095,58.734740,29.886977,61.306402,58.898644,0.000000,0.000000,
158429205,31.097056,31.097056,35.635143,2,-0.665222,-0.136536,-0.011169,-0.734009,-12.105262,4.217830,71.966986,12.328973,-24.227666,58.058535,30.682907,61.988301,58.347648,0.000000,0.000000,
158440093,32.458414,32.458414,35.639671,2,-0.719727,-0.121948,-0.005981,-0.683472,-13.467779,4.346679,71.744400,7.422882,-25.110977,58.474263,31.694310,62.835161,58.430698,0.000000,0.000000,
158449304,34.649760,34.649760,35.644200,2,-0.773865,-0.107788,-0.001648,-0.624084,-15.076162,2.993258,71.054416,3.514360,-25.679201,58.122128,32.829824,63.726073,58.228330,0.000000,0.000000,
158459133,35.452616,35.452616,35.635143,2,-0.826233,-0.093933,0.001892,-0.555420,-16.135545,2.932736,69.916340,-1.795668,-24.727949,57.594471,33.950500,64.602322,57.812612,0.000000,0.000000,
158469821,37.320170,37.320170,35.635143,2,-0.874695,-0.080322,0.004822,-0.477966,-17.775579,0.623907,68.480633,-5.493252,-24.451844,56.367556,35.275892,65.602449,56.864859,0.000000,0.000000,
158479399,38.474680,38.474680,35.639671,2,-0.916870,-0.066406,0.007324,-0.393555,-17.697756,-0.125606,67.227835,-9.514034,-21.407321,55.653937,36.506534,66.517259,56.070667,0.000000,0.000000,
158489099,39.719706,39.719706,35.639671,2,-0.951050,-0.052002,0.009644,-0.304504,-17.529854,-0.636504,66.052793,-13.027185,-17.570071,54.942705,37.756479,67.430207,55.330885,0.000000,0.000000,
158500006,39.899332,39.899332,35.630614,2,-0.975830,-0.036926,0.012146,-0.215027,-16.694142,-1.797415,65.104503,-14.893899,-13.641285,54.327797,38.896895,68.275165,54.672999,0.000000,0.000000,
158509339,41.172556,41.172556,35.639671,2,-0.991638,-0.020752,0.014587,-0.126526,-16.805457,-1.427308,63.037322,-17.390818,-8.406116,52.526110,39.963003,69.036856,53.264932,0.000000,0.000000,
158520283,42.508250,42.508250,35.635143,2,-0.999023,-0.002991,0.016907,-0.040710,-16.097843,-1.587166,62.186000,-17.988345,-3.341496,51.788692,41.198890,69.904330,52.296722,0.000000,0.000000,
158529554,42.002939,42.002939,35.639671,2,-0.998840,0.016113,0.019165,0.040833,-15.885959,-0.532206,60.749693,-18.102821,2.805571,50.258751,41.999826,70.465864,50.960084,0.000000,0.000000,
158539391,42.508250,42.508250,35.635143,2,-0.992004,0.036682,0.021118,0.118958,-16.035731,-0.096442,59.862106,-17.571028,8.318037,49.037808,42.790577,71.008330,49.699325,0.000000,0.000000,
158551068,43.040598,43.040598,35.639671,2,-0.979187,0.058289,0.022644,0.193176,-16.883708,0.619409,58.104214,-16.693061,14.465357,46.667113,43.669701,71.584650,47.710592,0.000000,0.000000,
158559932,43.961008,43.961008,35.635143,2,-0.960938,0.080627,0.023804,0.263672,-17.550643,1.752796,57.382672,-14.379316,19.917722,44.975542,44.360513,72.016623,45.916759,0.000000,0.000000,
158569430,44.909525,44.909525,35.639671,2,-0.937439,0.103638,0.024353,0.331482,-18.343099,1.385289,56.266856,-12.128596,24.194576,42.845826,45.149216,72.488324,43.902632,0.000000,0.000000,
158581311,46.064890,46.064890,35.644200,2,-0.908936,0.126587,0.024597,0.396484,-19.136066,2.838085,54.765005,-8.008648,29.651667,39.782099,46.184842,73.071412,41.200106,0.000000,0.000000,
158590176,47.933817,47.933817,35.644200,2,-0.875549,0.149353,0.024414,0.458862,-20.579700,2.120471,53.797395,-5.097049,32.790731,37.327832,47.162038,73.611304,38.660411,0.000000,0.000000,
158600754,49.269877,49.269877,35.639671,2,-0.837524,0.171387,0.023865,0.518250,-21.516743,2.167860,53.092118,-0.724798,35.931842,34.865316,48.337751,74.230096,36.171335,0.000000,0.000000,
158610036,50.517222,50.517222,35.639671,2,-0.793762,0.192261,0.023010,0.576538,-23.299636,1.468586,51.102229,3.031811,38.453754,31.040512,49.436470,74.776226,32.806198,0.000000,0.000000,
158619660,52.386423,52.386423,35.639671,2,-0.743469,0.211609,0.022400,0.633972,-23.569079,1.590046,49.836848,8.622534,39.255533,27.965299,50.709856,75.391348,29.631215,0.000000,0.000000,
158630660,54.049052,54.049052,35.639671,2,-0.686279,0.229187,0.022156,0.689941,-24.758540,1.069803,48.000240,13.578860,39.694159,24.228042,52.166256,76.049428,26.087455,0.000000,0.000000,
158640057,55.177897,55.177897,35.635143,2,-0.619202,0.244507,0.023010,0.745789,-25.103371,0.585507,47.045967,19.210032,38.623418,21.543131,53.446214,76.607992,23.106988,0.000000,0.000000,
158649616,56.334940,56.334940,35.639671,2,-0.545532,0.257874,0.023865,0.797058,-26.317967,0.958060,43.999169,24.931300,36.227044,16.558963,54.720143,77.104460,18.812354,0.000000,0.000000,
158660642,57.880656,57.880656,35.635143,2,-0.466492,0.269104,0.024475,0.842224,-27.699254,-1.136525,37.522244,26.865645,33.007376,9.296295,56.162800,77.579116,12.571080,0.000000,0.000000,
158670125,59.037485,59.037485,35.639671,2,-0.384216,0.278381,0.024292,0.879944,-28.010332,-0.732173,32.485379,30.195904,27.416607,3.494634,57.437130,77.950212,6.618135,0.000000,0.000000,
158679897,60.998759,60.998759,35.635143,2,-0.299622,0.285645,0.023010,0.910034,-28.081470,-1.679173,26.277230,30.818324,21.924921,-2.607012,58.865681,78.342311,0.567663,0.000000,0.000000,
158690701,61.207407,61.207407,35.635143,2,-0.213562,0.290344,0.020874,0.932556,-27.979066,-1.450751,17.811453,29.595884,15.026506,-10.282446,60.149974,78.508509,-6.548576,0.000000,0.000000,
158700050,62.156992,62.156992,35.639671,2,-0.126953,0.292664,0.017517,0.947571,-28.201093,-0.899241,14.535250,30.227820,8.930623,-13.497768,61.259251,78.617717,-11.106326,0.000000,0.000000,
158710842,62.898508,62.898508,35.644200,2,-0.040283,0.292725,0.013245,0.955261,-29.893780,-0.978064,10.659156,30.539359,3.557501,-17.724965,62.413673,78.620504,-15.447278,0.000000,0.000000,
158720171,63.910685,63.910685,35.635143,2,0.045227,0.289917,0.008179,0.955933,-28.623123,-0.243466,7.428597,27.832141,-2.446778,-19.471703,63.426713,78.614952,-18.086766,0.000000,0.000000,
158729829,64.860514,64.860514,35.639671,2,0.128967,0.284790,0.002441,0.949890,-28.981207,-0.392194,5.549590,26.414060,-7.147408,-20.839273,64.453475,78.581226,-19.892044,0.000000,0.000000,
158740897,65.485117,65.485117,35.639671,2,0.210693,0.277039,-0.003723,0.937500,-28.921487,-0.111998,3.020485,23.518091,-11.639648,-22.324440,65.515095,78.455151,-21.487373,0.000000,0.000000,
158750354,66.642283,66.642283,35.644200,2,0.289734,0.266907,-0.010193,0.919067,-29.161925,0.161285,1.472022,20.731516,-15.760435,-22.990776,66.467264,78.370848,-22.473403,0.000000,0.000000,
158760092,67.745432,67.745432,35.630614,2,0.366211,0.254333,-0.016724,0.894958,-26.483320,0.215093,-0.555414,15.562801,-17.171417,-22.632146,67.468838,78.300135,-22.577513,0.000000,0.000000,
158770781,67.565287,67.565287,35.639671,2,0.440369,0.239502,-0.022888,0.864990,-28.393597,1.174141,-1.779643,12.515921,-21.591319,-23.514294,68.322482,78.060327,-23.191918,0.000000,0.000000,
158780229,68.099467,68.099467,35.644200,2,0.512329,0.222656,-0.028625,0.828918,-29.491998,0.912157,-2.645990,9.397244,-24.372731,-23.761684,69.017111,77.809322,-23.565611,0.000000,0.000000,
158791010,69.112162,69.112162,35.635143,2,0.582031,0.204102,-0.033142,0.786438,-29.303944,0.569985,-3.786878,5.402025,-25.514916,-23.690526,69.872408,77.565043,-23.647539,0.000000,0.000000,
158800259,70.270243,70.270243,35.639671,2,0.650269,0.184082,-0.036377,0.736145,-30.215513,-0.178069,-4.697151,1.733219,-27.120558,-23.817955,70.663346,77.391754,-23.759307,0.000000,0.000000,
158810119,70.776438,70.776438,35.635143,2,0.716614,0.162781,-0.038147,0.677124,-29.364477,0.078044,-5.038766,-3.263269,-26.689225,-22.617880,71.446560,77.181819,-23.010681,0.000000,0.000000,
158821169,71.193064,71.193064,35.635143,2,0.779480,0.140381,-0.039001,0.609314,-29.646540,-0.767077,-6.206980,-7.489168,-26.346847,-22.754638,72.250528,76.900824,-22.842751,0.000000,0.000000,
158830626,71.519602,71.519602,35.639671,2,0.836365,0.117004,-0.039368,0.534119,-29.176931,-1.314890,-6.311891,-11.630602,-24.824565,-21.687488,72.839833,76.609562,-22.085053,0.000000,0.000000,
158840311,71.817515,71.817515,35.635143,2,0.885071,0.092834,-0.039734,0.454346,-29.109351,-1.923137,-6.987057,-15.538342,-22.883653,-21.392237,73.389287,76.282837,-21.630661,0.000000,0.000000,
158851174,71.935221,71.935221,35.639671,2,0.925049,0.068176,-0.040283,0.371460,-28.486119,-1.964773,-7.422397,-18.991259,-19.659138,-20.885897,73.944226,75.886678,-21.142199,0.000000,0.000000,
158860563,72.768076,72.768076,35.639671,2,0.956177,0.043091,-0.041077,0.286743,-28.318201,-2.030527,-7.685665,-22.033510,-16.296257,-20.473834,74.435401,75.555756,-20.703845,0.000000,0.000000,
158871429,72.650339,72.650339,35.635143,2,0.978333,0.017578,-0.042053,0.201904,-28.092106,-1.739407,-8.791438,-24.346411,-12.198378,-21.096306,74.920516,75.118710,-20.961255,0.000000,0.000000,
158880827,73.393137,73.393137,35.639671,2,0.991943,-0.008179,-0.043030,0.118591,-27.571757,-1.374639,-8.745606,-25.598884,-7.901655,-20.772663,75.339245,74.742791,-20.837570,0.000000,0.000000,
158890572,73.718729,73.718729,35.644200,2,0.997742,-0.034119,-0.043823,0.037231,-27.753522,-0.224128,-9.053564,-26.736492,-2.963783,-21.137832,75.763006,74.347712,-21.034509,0.000000,0.000000,
158901453,74.433970,74.433970,35.639671,2,0.996338,-0.059937,-0.044250,-0.041321,-27.423250,0.463304,-9.651419,-26.376233,1.378300,-21.949857,76.321564,73.954958,-21.634863,0.000000,0.000000,
158910899,74.940348,74.940348,35.635143,2,0.988586,-0.085327,-0.044128,-0.115967,-27.765888,0.706596,-9.885838,-26.068669,5.060510,-22.586818,76.760193,73.578249,-22.259227,0.000000,0.000000,
158920435,74.940348,74.940348,35.635143,2,0.975464,-0.110107,-0.043274,-0.185547,-27.510103,2.374414,-9.969047,-24.191940,9.537162,-23.410157,77.119856,73.142887,-23.014094,0.000000,0.000000,
158931566,75.474894,75.474894,35.639671,2,0.958252,-0.133789,-0.041382,-0.249329,-26.281769,3.127365,-10.128090,-21.266894,12.085957,-24.109879,77.624224,72.685143,-23.732792,0.000000,0.000000,
158940820,76.308054,76.308054,35.639671,2,0.938232,-0.156189,-0.038208,-0.306458,-25.694922,4.679626,-10.014105,-18.288130,14.870743,-24.856333,78.049051,72.299231,-24.469693,0.000000,0.000000,
158951761,77.377817,77.377817,35.648728,2,0.916870,-0.176697,-0.033508,-0.356323,-24.521818,5.886625,-8.866621,-14.892127,16.665575,-24.456524,78.712803,71.953717,-24.461058,0.000000,0.000000,
158960982,78.092295,78.092295,35.644200,2,0.895203,-0.194946,-0.027588,-0.399780,-23.801134,6.114495,-8.717781,-12.644950,17.236569,-24.724738,79.258921,71.652312,-24.634001,0.000000,0.000000,
158970727,78.807322,78.807322,35.639671,2,0.873413,-0.210693,-0.020386,-0.438599,-22.053010,7.640923,-8.227298,-8.858616,17.553940,-24.824545,79.871404,71.357981,-24.758974,0.000000,0.000000,
158981438,78.925638,78.925638,35.644200,2,0.851379,-0.223877,-0.012451,-0.474182,-20.984684,5.993602,-7.879886,-8.171221,16.417989,-24.004676,80.457179,70.991323,-24.264258,0.000000,0.000000,
158990953,79.223765,79.223765,35.639671,2,0.828247,-0.234375,-0.004211,-0.508972,-20.301836,6.737844,-7.631750,-5.854672,16.582326,-24.159993,80.900459,70.616940,-24.195879,0.000000,0.000000,
159000666,78.480570,78.480570,35.635143,2,0.802490,-0.242432,0.003296,-0.545166,-18.682615,5.218050,-7.232777,-4.969627,15.092393,-23.073950,81.132124,70.112315,-23.460051,0.000000,0.000000,
159011715,78.897501,78.897501,35.635143,2,0.772217,-0.248230,0.009521,-0.584778,-18.047271,3.549077,-7.495478,-4.803793,14.277061,-22.741434,81.486720,69.602966,-22.988741,0.000000,0.000000,
159021023,77.259012,77.259012,35.644200,2,0.735229,-0.252258,0.014038,-0.628967,-17.142310,3.239687,-7.471075,-3.121414,13.593396,-22.661445,81.341304,68.894484,-22.774097,0.000000,0.000000,
159031942,77.349161,77.349161,35.639671,2,0.688354,-0.254700,0.016052,-0.679016,-16.752545,2.651687,-7.619276,-1.640937,13.152420,-22.834773,81.343988,68.182446,-22.813909,0.000000,0.000000,
159041160,75.503031,75.503031,35.648728,2,0.629517,-0.255798,0.015564,-0.733521,-16.218736,2.384532,-7.537369,0.450009,12.354288,-22.933956,80.876808,67.282427,-22.892671,0.000000,0.000000,
159050978,74.849711,74.849711,35.639671,2,0.558777,-0.255676,0.012939,-0.788818,-15.501925,1.555909,-7.332691,2.090085,11.236719,-22.680042,80.407491,66.361580,-22.753238,0.000000,0.000000,
159062663,73.809366,73.809366,35.639671,2,0.478882,-0.254395,0.009338,-0.840149,-14.751527,1.262192,-7.521419,3.466697,10.002880,-22.834251,79.944419,65.332954,-22.806398,0.000000,0.000000,
159071534,73.364481,73.364481,35.630614,2,0.391663,-0.251831,0.005310,-0.884949,-14.419473,0.602234,-7.356030,5.268802,8.239740,-22.717236,79.289316,64.347545,-22.747951,0.000000,0.000000,
159081107,72.976420,72.976420,35.639671,2,0.297791,-0.248108,0.001160,-0.921814,-13.875424,0.642517,-7.227338,6.739376,6.049459,-22.563993,78.721941,63.398669,-22.627324,0.000000,0.000000,
159092842,72.053446,72.053446,35.644200,2,0.198425,-0.243286,-0.003113,-0.949463,-13.703770,0.466583,-7.106359,7.637154,4.510506,-22.432559,78.214403,62.367535,-22.499610,0.000000,0.000000,
159101776,71.519602,71.519602,35.639671,2,0.094727,-0.237488,-0.007263,-0.966736,-13.558326,0.441485,-6.873929,8.719304,1.599963,-22.151013,77.515450,61.373492,-22.271009,0.000000,0.000000,
159112434,71.699290,71.699290,35.630614,2,-0.012268,-0.230774,-0.011536,-0.972839,-13.743752,0.026669,-6.889484,9.181938,-0.548983,-22.117975,77.078265,60.462681,-22.170662,0.000000,0.000000,
159121695,71.817515,71.817515,35.635143,2,-0.120972,-0.223145,-0.015930,-0.967102,-14.054442,0.244491,-6.479115,9.363039,-3.476003,-21.621522,76.651505,59.645052,-21.810521,0.000000,0.000000,
159131307,72.380015,72.380015,35.648728,2,-0.229187,-0.214722,-0.020325,-0.949158,-13.725616,-0.358080,-6.401775,8.495220,-5.389040,-21.121883,76.424058,58.948714,-21.358882,0.000000,0.000000,
159142232,72.796732,72.796732,35.648728,2,-0.335205,-0.205505,-0.024597,-0.919128,-14.570675,-0.686063,-6.180479,8.042316,-8.024789,-20.839462,76.387389,58.304746,-21.018224,0.000000,0.000000,
159151666,73.600992,73.600992,35.639671,2,-0.436890,-0.195557,-0.028748,-0.877502,-15.190848,-0.873154,-6.255569,6.578502,-10.519788,-20.595141,76.414488,57.784985,-20.740750,0.000000,0.000000,
159161277,74.343851,74.343851,35.644200,2,-0.532715,-0.184753,-0.032593,-0.825256,-15.206776,-1.534658,-6.221162,4.748266,-11.998829,-20.073092,76.581259,57.353115,-20.302862,0.000000,0.000000,
159172322,74.878367,74.878367,35.648728,2,-0.620483,-0.173340,-0.035950,-0.763977,-14.872746,-2.728474,-6.057578,3.196427,-12.687690,-19.490722,76.894572,56.942249,-19.770211,0.000000,0.000000,
159181744,76.009989,76.009989,35.644200,2,-0.698364,-0.161194,-0.038330,-0.696289,-14.954083,-3.166012,-6.188981,0.910263,-13.591800,-19.084610,77.264517,56.659165,-19.320551,0.000000,0.000000,
159192512,77.141245,77.141245,35.639671,2,-0.765808,-0.148438,-0.039917,-0.624451,-13.731365,-4.775995,-5.914709,0.069105,-13.077549,-18.465401,77.850489,56.445803,-18.759685,0.000000,0.000000,
159201932,78.509226,78.509226,35.644200,2,-0.823059,-0.135193,-0.040710,-0.550171,-13.423798,-5.518273,-5.900656,-1.588709,-13.230930,-18.038626,78.504884,56.353312,-18.286762,0.000000,0.000000,
159211557,78.626993,78.626993,35.648728,2,-0.871399,-0.121399,-0.041077,-0.473572,-12.893641,-6.693133,-5.739796,-2.681567,-13.265654,-17.587722,79.069366,56.198180,-17.828283,0.000000,0.000000,
159222291,78.835490,78.835490,35.648728,2,-0.912415,-0.106995,-0.041443,-0.392822,-12.804323,-8.083780,-5.579090,-3.976231,-13.785103,-17.179198,79.627826,55.986689,-17.402569,0.000000,0.000000,
159231739,80.293864,80.293864,35.648728,3,-0.947083,-0.091858,-0.042175,-0.304688,-12.369751,-8.807107,-5.580058,-5.780113,-13.427466,-16.727742,80.280842,55.906447,-16.959968,0.000000,0.000000,
159241380,80.918345,80.918345,35.648728,3,-0.974304,-0.076111,-0.043274,-0.207397,-11.735057,-10.037701,-5.238413,-7.304351,-13.198317,-16.007870,80.938485,55.825544,-16.335514,0.000000,0.000000,
159252344,81.334849,81.334849,35.648728,3,-0.992310,-0.059814,-0.044373,-0.098999,-10.643447,-10.109865,-5.182510,-8.984542,-11.419426,-15.401009,81.623909,55.701627,-15.722600,0.000000,0.000000,
159261826,81.752421,81.752421,35.648728,3,-0.997925,-0.043030,-0.044739,0.018555,-9.530775,-10.310012,-5.098970,-10.355686,-9.496267,-14.866724,82.175521,55.575957,-15.161257,0.000000,0.000000,
159272782,81.543375,81.543375,35.648728,3,-0.988647,-0.026062,-0.043701,0.141235,-7.927117,-10.293872,-4.983800,-10.870629,-7.351521,-14.418725,82.665116,55.344787,-14.674256,0.000000,0.000000,
159282160,81.334849,81.334849,35.648728,3,-0.963684,-0.008972,-0.040955,0.263794,-7.397376,-10.008691,-4.959224,-11.808519,-4.667446,-14.084116,82.934237,55.056797,-14.287207,0.000000,0.000000,
159291852,81.126841,81.126841,35.648728,3,-0.923584,0.008057,-0.036194,0.381592,-6.124457,-9.539855,-4.994149,-11.416023,-2.377459,-13.999507,83.128706,54.712060,-14.098521,0.000000,0.000000,
159302640,81.009043,81.009043,35.644200,3,-0.869446,0.024780,-0.029297,0.492493,-5.493174,-9.110563,-5.141294,-11.004842,-0.034700,-14.123135,83.321018,54.316040,-14.114673,0.000000,0.000000,
159311954,80.085886,80.085886,35.648728,3,-0.802673,0.041016,-0.020081,0.594666,-5.041104,-8.467786,-5.052035,-9.949578,2.156469,-14.155478,83.220222,53.806623,-14.141451,0.000000,0.000000,
159321721,81.009043,81.009043,35.644200,3,-0.724731,0.056396,-0.008728,0.686646,-4.785053,-8.434909,-5.310084,-9.145923,3.963562,-14.597624,83.331043,53.409820,-14.440649,0.000000,0.000000,
159332726,81.842631,81.842631,35.644200,3,-0.637451,0.070618,0.004578,0.767212,-4.316296,-8.041839,-5.334788,-7.655979,5.208454,-14.904705,83.639076,53.075497,-14.745015,0.000000,0.000000,
159342207,81.009043,81.009043,35.644200,3,-0.542664,0.083374,0.019653,0.835571,-4.071355,-8.251163,-5.370601,-6.533323,6.399116,-15.273015,83.648766,52.623230,-15.091326,0.000000,0.000000,
159352990,81.307230,81.307230,35.639671,3,-0.442139,0.094299,0.036133,0.891235,-3.792323,-8.087384,-5.515941,-4.942645,7.055104,-15.808226,83.776471,52.182727,-15.561528,0.000000,0.000000,
159362468,81.813944,81.813944,35.635143,3,-0.337280,0.103149,0.053589,0.934204,-3.372807,-8.540135,-5.352872,-3.777598,7.718140,-16.044766,83.902536,51.800774,-15.878478,0.000000,0.000000,
159371955,82.348856,82.348856,35.639671,3,-0.229736,0.109863,0.071655,0.964355,-2.491672,-8.594489,-5.422778,-2.744788,7.641094,-16.397626,84.102269,51.465565,-16.218977,0.000000,0.000000,
159382753,83.002665,83.002665,35.648728,3,-0.120789,0.114197,0.089966,0.981995,-2.262019,-8.900048,-5.342304,-1.240362,7.893656,-16.803694,84.451039,51.158537,-16.602479,0.000000,0.000000,
159392121,83.391093,83.391093,35.639671,3,-0.011597,0.116272,0.108093,0.987244,-1.435316,-8.881946,-5.273728,-0.233075,7.522830,-17.014377,84.730984,50.875762,-16.872635,0.000000,0.000000,
159401944,84.551829,84.551829,35.644200,3,0.096802,0.115967,0.125671,0.980530,-1.300455,-8.884109,-5.348414,1.320694,6.949723,-17.490223,85.196327,50.683429,-17.277692,0.000000,0.000000,
159412963,84.551829,84.551829,35.644200,3,0.203735,0.113342,0.142395,0.961975,-0.403641,-8.522097,-4.913012,2.058906,6.176570,-17.176022,85.633040,50.420370,-17.211013,0.000000,0.000000,
159422429,85.474894,85.474894,35.639671,3,0.308044,0.108337,0.157959,0.931885,-0.410195,-7.822710,-5.026651,3.038698,4.557493,-17.324739,86.079905,50.237869,-17.285603,0.000000,0.000000,
159433191,85.384135,85.384135,35.644200,3,0.408813,0.101013,0.172119,0.890503,0.417189,-7.470811,-4.613691,3.425862,3.815713,-16.935984,86.489225,49.975274,-17.056302,0.000000,0.000000,
159442651,86.635325,86.635325,35.644200,3,0.504578,0.091614,0.184631,0.838379,0.783923,-6.514994,-4.688964,3.325448,2.423261,-16.737824,86.988634,49.834116,-16.847422,0.000000,0.000000,
159452233,86.725565,86.725565,35.639671,3,0.593445,0.080627,0.195251,0.776672,1.507961,-5.611108,-4.366502,3.010101,1.758008,-16.179990,87.416169,49.648772,-16.409675,0.000000,0.000000,
159463273,87.052073,87.052073,35.644200,3,0.673706,0.068604,0.203674,0.707031,1.727716,-5.011322,-4.474529,2.829238,0.855407,-16.078075,87.895118,49.429444,-16.192190,0.000000,0.000000,
159472468,87.795908,87.795908,35.648728,3,0.744507,0.056091,0.209717,0.631287,1.911686,-4.121771,-4.448545,2.287796,0.218686,-15.727015,88.330392,49.273466,-15.887097,0.000000,0.000000,
159482284,88.005076,88.005076,35.648728,3,0.805237,0.043701,0.213501,0.551392,1.968471,-3.855784,-4.480360,2.178850,-0.455647,-15.612270,88.752414,49.082879,-15.706848,0.000000,0.000000,
159493022,87.976389,87.976389,35.639671,3,0.855957,0.031921,0.215088,0.469055,1.836211,-3.045689,-4.526513,1.456494,-0.867761,-15.295086,89.133256,48.829724,-15.436789,0.000000,0.000000,
159502614,88.005076,88.005076,35.648728,3,0.897095,0.021057,0.214661,0.385681,2.061019,-2.987696,-4.547209,1.467263,-1.234174,-15.291248,89.389594,48.552126,-15.341338,0.000000,0.000000,
159512349,88.184519,88.184519,35.639671,3,0.929199,0.011292,0.212341,0.302185,1.715764,-2.551461,-4.549495,0.841367,-1.598683,-14.980257,89.635915,48.267710,-15.104521,0.000000,0.000000,
159523385,88.511606,88.511606,35.644200,3,0.953064,0.002747,0.208557,0.219482,1.807258,-2.556110,-4.744671,0.642561,-1.955419,-15.095541,89.957056,47.972434,-15.098636,0.000000,0.000000,
159532623,88.810007,88.810007,35.639671,3,0.969299,-0.004639,0.203491,0.138184,1.413599,-2.796692,-4.515779,0.221046,-2.605105,-14.635596,90.184718,47.703529,-14.794948,0.000000,0.000000,
159544518,88.511606,88.511606,35.644200,3,0.978516,-0.010986,0.197266,0.058716,1.241293,-2.740094,-4.669149,-0.535722,-2.416964,-14.583535,90.437472,47.337842,-14.656295,0.000000,0.000000,
159553373,89.137125,89.137125,35.644200,3,0.981445,-0.016235,0.190247,-0.018494,1.157337,-2.984688,-4.568418,-0.731114,-3.144901,-14.353516,90.612261,47.056463,-14.457719,0.000000,0.000000,
159562859,89.165293,89.165293,35.653256,3,0.978577,-0.020691,0.182434,-0.093262,1.078075,-3.103781,-4.603517,-1.218485,-3.281919,-14.242831,90.787019,46.754041,-14.316786,0.000000,0.000000,
159574556,88.957133,88.957133,35.653256,3,0.970459,-0.024414,0.174072,-0.165222,1.370682,-3.496145,-4.413760,-1.580995,-3.392337,-14.017403,90.990010,46.380505,-14.120437,0.000000,0.000000,
159583289,90.061106,90.061106,35.639671,3,0.957642,-0.027649,0.165344,-0.234192,1.419834,-3.724208,-4.436921,-1.921738,-3.855240,-13.930928,91.220421,46.149303,-13.996148,0.000000,0.000000,
159592770,90.596445,90.596445,35.644200,3,0.940552,-0.030457,0.156311,-0.299927,1.751432,-3.571857,-4.194149,-1.941567,-3.773322,-13.721281,91.540550,45.947597,-13.815874,0.000000,0.000000,
159603710,91.639506,91.639506,35.644200,3,0.919800,-0.033081,0.147156,-0.362305,1.549995,-3.736531,-4.075886,-2.587310,-3.604394,-13.450512,92.060956,45.811514,-13.576244,0.000000,0.000000,
159613013,91.520548,91.520548,35.639671,3,0.895691,-0.035706,0.137878,-0.421265,1.612610,-3.823553,-3.976531,-2.977362,-3.481117,-13.271770,92.385369,45.625532,-13.376552,0.000000,0.000000,
159623825,91.848246,91.848246,35.644200,3,0.868774,-0.038330,0.128479,-0.476746,1.599327,-3.799584,-3.788141,-3.277622,-3.192097,-13.033753,92.777324,45.423130,-13.151723,0.000000,0.000000,
159633145,93.008890,93.008890,35.648728,3,0.839417,-0.041138,0.119019,-0.528687,1.928011,-3.695081,-3.923164,-3.403525,-3.122607,-13.180366,93.243467,45.327150,-13.170508,0.000000,0.000000,
159642866,93.307413,93.307413,35.644200,3,0.808105,-0.044128,0.109436,-0.577087,1.665484,-3.385273,-3.816359,-3.486054,-2.474993,-13.051754,93.695451,45.207586,-13.092621,0.000000,0.000000,
159653826,93.516703,93.516703,35.644200,3,0.775208,-0.047424,0.099854,-0.622009,1.874191,-3.711421,-3.776709,-3.974205,-2.449735,-12.927186,94.156681,45.045480,-12.984118,0.000000,0.000000,
159663273,93.815775,93.815775,35.639671,3,0.740906,-0.051025,0.090210,-0.663574,1.649337,-3.422601,-3.718625,-3.917714,-1.857727,-12.878254,94.517797,44.884289,-12.914687,0.000000,0.000000,
159672852,94.469797,94.469797,35.648728,3,0.705627,-0.054993,0.080627,-0.701782,1.607677,-3.536570,-3.514437,-4.138258,-1.504488,-12.628129,94.938191,44.757843,-12.726742,0.000000,0.000000,
159683937,95.005350,95.005350,35.653256,3,0.669617,-0.059265,0.070984,-0.736938,1.897728,-3.540522,-3.643275,-4.313720,-1.461214,-12.741213,95.446126,44.624256,-12.736233,0.000000,0.000000,
159693370,95.095133,95.095133,35.648728,3,0.632935,-0.063904,0.061462,-0.769104,1.644487,-3.607662,-3.594028,-4.440226,-0.874071,-12.673275,95.800751,44.463925,-12.694943,0.000000,0.000000,
159703087,95.810831,95.810831,35.644200,3,0.595764,-0.068787,0.052002,-0.798523,1.417047,-3.360141,-3.616236,-4.202389,-0.404655,-12.744169,96.234090,44.341245,-12.727229,0.000000,0.000000,
159713909,96.228464,96.228464,35.644200,3,0.558228,-0.074036,0.042603,-0.825256,1.050255,-3.083611,-3.692172,-3.832887,0.128904,-12.891178,96.712136,44.201156,-12.834758,0.000000,0.000000,
159723256,96.437296,96.437296,35.644200,3,0.520508,-0.079651,0.033325,-0.849487,0.976913,-2.921430,-3.522627,-3.612423,0.367983,-12.768513,97.073250,44.049948,-12.791311,0.000000,0.000000,
159734030,96.765177,96.765177,35.648728,3,0.482727,-0.085632,0.024048,-0.871277,0.785939,-2.854229,-3.646673,-3.430125,0.704167,-12.938650,97.489381,43.875362,-12.887947,0.000000,0.000000,
159743326,96.645609,96.645609,35.644200,3,0.444763,-0.091858,0.015015,-0.890808,0.771620,-2.603000,-3.463214,-3.125744,0.767623,-12.803965,97.738651,43.658423,-12.832870,0.000000,0.000000,
159752963,97.063273,97.063273,35.644200,3,0.406799,-0.098328,0.006042,-0.908203,0.265761,-2.832407,-3.644320,-2.933501,1.446096,-13.069457,98.032356,43.455259,-12.988042,0.000000,0.000000,
159764028,96.973490,96.973490,35.648728,3,0.368774,-0.104858,-0.002686,-0.923584,-0.091503,-2.787595,-3.467342,-2.513329,1.807450,-13.010558,98.314096,43.190989,-13.002814,0.000000,0.000000,
159773509,97.182322,97.182322,35.648728,3,0.330872,-0.111389,-0.011353,-0.937012,-0.135451,-2.711176,-3.596022,-2.312200,1.861848,-13.198502,98.510970,42.934400,-13.131165,0.000000,0.000000,
159783264,97.807841,97.807841,35.648728,3,0.293030,-0.117920,-0.019775,-0.948608,-0.424254,-2.564114,-3.701858,-1.893268,1.965635,-13.413333,98.797499,42.722886,-13.316233,0.000000,0.000000,
159793974,98.107004,98.107004,35.644200,3,0.255310,-0.124390,-0.028015,-0.958435,-0.513874,-2.617721,-3.458346,-1.651825,2.117322,-13.247000,99.124983,42.502142,-13.270828,0.000000,0.000000,
159803409,99.149821,99.149821,35.644200,3,0.217651,-0.130615,-0.036011,-0.966553,-0.971840,-2.332766,-3.616534,-1.018430,2.039988,-13.571678,99.530025,42.376871,-13.468146,0.000000,0.000000,
159814195,99.149821,99.149821,35.644200,3,0.179932,-0.136536,-0.043762,-0.973145,-1.246594,-2.454160,-3.341261,-0.603381,2.255498,-13.446277,99.915103,42.188349,-13.453804,0.000000,0.000000,
159823486,100.193766,100.193766,35.644200,3,0.142151,-0.142151,-0.051270,-0.978210,-1.528238,-2.100736,-3.501765,-0.129250,1.908563,-13.712655,100.358668,42.093191,-13.623575,0.000000,0.000000,
159833044,99.866312,99.866312,35.639671,3,0.104431,-0.147400,-0.058533,-0.981812,-1.701524,-2.385271,-3.434733,0.102466,2.129875,-13.776518,100.668205,41.905234,-13.723888,0.000000,0.000000,
159844061,100.222483,100.222483,35.653256,3,0.066895,-0.152161,-0.065369,-0.983948,-1.953663,-2.590441,-3.368672,0.475174,2.261143,-13.864033,101.045567,41.702004,-13.815806,0.000000,0.000000,
159853681,101.028391,101.028391,35.644200,3,0.029663,-0.156433,-0.071960,-0.984619,-2.258956,-2.589935,-3.399019,0.901857,2.118588,-14.045761,101.442862,41.564824,-13.966627,0.000000,0.000000,
159863500,100.848185,100.848185,35.653256,3,-0.007202,-0.160034,-0.078186,-0.984009,-2.105908,-2.775047,-3.249151,0.935487,2.165659,-13.937217,101.738966,41.359723,-13.947341,0.000000,0.000000,
159874373,101.474955,101.474955,35.653256,3,-0.043640,-0.163025,-0.084106,-0.982056,-2.201473,-2.551425,-3.435832,1.093294,1.730304,-14.147324,102.138370,41.175778,-14.078504,0.000000,0.000000,
159883704,101.474955,101.474955,35.653256,3,-0.079712,-0.165222,-0.089539,-0.978943,-2.287037,-2.711435,-3.085502,1.432104,1.743022,-13.922205,102.397702,40.968815,-13.975996,0.000000,0.000000,
159894638,102.400034,102.400034,35.648728,3,-0.115417,-0.166809,-0.094604,-0.974609,-2.196154,-2.627288,-3.288650,1.378648,1.462892,-14.097465,102.845244,40.814991,-14.055664,0.000000,0.000000,
159904011,103.144968,103.144968,35.653256,3,-0.150696,-0.167603,-0.099182,-0.969177,-1.982794,-2.811713,-3.097038,1.408152,1.544716,-13.932602,103.283355,40.719363,-13.974950,0.000000,0.000000,
159913720,104.040964,104.040964,35.639671,3,-0.185547,-0.167664,-0.103333,-0.962708,-2.208820,-2.583104,-3.079970,1.655645,1.063033,-13.945038,103.819896,40.670934,-13.955329,0.000000,0.000000,
159924605,103.652262,103.652262,35.648728,3,-0.219849,-0.167053,-0.106934,-0.955139,-1.964663,-2.426269,-3.097816,1.456167,0.836733,-13.861183,104.230383,40.500886,-13.893582,0.000000,0.000000,
159934102,104.160074,104.160074,35.644200,3,-0.253662,-0.165833,-0.110107,-0.946594,-2.148509,-2.582417,-3.038227,1.774781,0.693442,-13.902490,104.601221,40.360690,-13.899425,0.000000,0.000000,
159943678,104.577524,104.577524,35.644200,3,-0.286987,-0.164001,-0.112793,-0.937012,-2.120869,-2.425132,-3.073447,1.721550,0.385725,-13.879062,104.982643,40.225068,-13.886069,0.000000,0.000000,
159954733,104.786539,104.786539,35.644200,3,-0.319763,-0.161560,-0.115051,-0.926514,-1.895440,-2.237914,-3.061535,1.506546,0.191439,-13.756736,105.389767,40.050613,-13.801245,0.000000,0.000000,
159964145,105.322611,105.322611,35.648728,3,-0.351868,-0.158569,-0.116760,-0.915100,-1.795288,-1.969441,-2.972861,1.350885,-0.097321,-13.557416,105.753553,39.915308,-13.641325,0.000000,0.000000,
159974978,105.322611,105.322611,35.648728,3,-0.383362,-0.155151,-0.118042,-0.902771,-1.966357,-1.763402,-3.073332,1.306651,-0.531519,-13.601527,106.104423,39.718572,-13.615224,0.000000,0.000000,
159984215,106.039530,106.039530,35.644200,3,-0.414124,-0.151306,-0.118835,-0.889648,-1.812093,-1.571161,-2.845711,1.157953,-0.655420,-13.277984,106.458596,39.588518,-13.394039,0.000000,0.000000,
159993962,106.039530,106.039530,35.644200,3,-0.444214,-0.146973,-0.119202,-0.875671,-1.877840,-1.347413,-3.021449,0.950999,-0.985536,-13.345843,106.765383,39.410517,-13.362431,0.000000,0.000000,
160004708,106.068278,106.068278,35.653256,3,-0.473572,-0.142273,-0.119202,-0.860962,-1.710309,-1.281822,-2.706962,0.900988,-0.970971,-12.985729,107.057610,39.191483,-13.115366,0.000000,0.000000,
160014232,107.292704,107.292704,35.644200,3,-0.502136,-0.137268,-0.118896,-0.845520,-1.778618,-1.218274,-2.975528,0.761610,-1.183061,-13.188318,107.474300,39.093015,-13.163212,0.000000,0.000000,
160025931,107.382609,107.382609,35.639671,3,-0.529846,-0.131958,-0.118286,-0.829346,-1.667589,-0.850059,-2.844630,0.290102,-1.179110,-12.908874,107.913591,38.931347,-12.996400,0.000000,0.000000,
160034696,108.217814,108.217814,35.639671,3,-0.556702,-0.126465,-0.117493,-0.812561,-1.896696,-0.722526,-2.929014,0.304159,-1.663220,-12.939080,108.311354,38.853852,-12.958804,0.000000,0.000000,
160044200,108.246531,108.246531,35.648728,3,-0.582703,-0.120789,-0.116577,-0.795166,-1.511520,-0.474713,-2.830959,-0.067679,-1.431069,-12.711299,108.667922,38.725616,-12.796474,0.000000,0.000000,
160055956,108.246531,108.246531,35.648728,3,-0.607849,-0.114929,-0.115479,-0.777161,-1.736571,-0.453583,-2.808525,-0.194564,-1.541882,-12.667629,109.043360,38.528753,-12.711970,0.000000,0.000000,
160064815,109.262156,109.262156,35.639671,3,-0.632080,-0.108948,-0.114319,-0.758667,-1.737981,-0.325661,-2.835485,-0.265992,-1.750563,-12.630465,109.425198,38.442604,-12.658513,0.000000,0.000000,
160074309,108.664683,108.664683,35.648728,3,-0.655396,-0.102844,-0.113098,-0.739685,-2.042899,-0.225817,-2.843804,-0.396719,-2.086391,-12.584960,109.647252,38.236120,-12.610274,0.000000,0.000000,
160085082,109.590433,109.590433,35.644200,3,-0.677917,-0.096741,-0.111938,-0.720093,-1.813444,-0.135113,-2.724856,-0.556198,-1.886373,-12.419993,110.047818,38.095798,-12.485475,0.000000,0.000000,
160094492,110.126749,110.126749,35.648728,3,-0.699585,-0.090637,-0.110779,-0.700073,-1.689112,-0.018779,-2.807201,-0.768445,-1.773237,-12.450558,110.420530,37.987739,-12.462574,0.000000,0.000000,
160105331,110.425791,110.425791,35.644200,3,-0.720459,-0.084473,-0.109802,-0.679504,-1.715242,-0.115635,-2.721037,-0.728775,-1.798648,-12.377715,110.832541,37.854142,-12.406917,0.000000,0.000000,
160114781,110.216166,110.216166,35.644200,3,-0.740540,-0.078247,-0.108948,-0.658508,-1.493991,0.217548,-2.815074,-1.118257,-1.535219,-12.372235,111.074264,37.665958,-12.384173,0.000000,0.000000,
160124356,111.470865,111.470865,35.644200,3,-0.759827,-0.072083,-0.108215,-0.636963,-1.527856,0.102244,-2.670115,-1.038954,-1.561137,-12.243638,111.508595,37.594039,-12.291999,0.000000,0.000000,
160135326,110.663126,110.663126,35.653256,3,-0.778381,-0.065796,-0.107727,-0.614929,-1.817400,0.159641,-2.807691,-1.252218,-1.812604,-12.324634,111.761945,37.363010,-12.313407,0.000000,0.000000,
160144609,112.306925,112.306925,35.644200,3,-0.796143,-0.059570,-0.107361,-0.592529,-2.074103,0.007429,-2.582033,-1.208701,-2.066449,-12.097928,112.210337,37.313792,-12.172078,0.000000,0.000000,
160154466,112.306925,112.306925,35.644200,3,-0.813049,-0.053284,-0.107117,-0.569763,-1.940257,0.004615,-2.686503,-1.276933,-1.913364,-12.187670,112.595624,37.204654,-12.182304,0.000000,0.000000,
160165450,112.544321,112.544321,35.653256,3,-0.829224,-0.047180,-0.107056,-0.546570,-1.887585,0.066195,-2.574299,-1.370261,-1.806097,-12.050166,112.993951,37.066411,-12.095639,0.000000,0.000000,
160174876,113.052042,113.052042,35.648728,3,-0.844604,-0.041199,-0.107117,-0.523010,-1.867750,0.006793,-2.574925,-1.385881,-1.773406,-12.046500,113.353688,36.959609,-12.063410,0.000000,0.000000,
160185547,113.141978,113.141978,35.644200,3,-0.859192,-0.035217,-0.107422,-0.499023,-1.565090,0.311800,-2.587482,-1.588521,-1.321071,-12.034328,113.707744,36.806975,-12.044337,0.000000,0.000000,
160194863,113.888224,113.888224,35.648728,3,-0.872986,-0.029114,-0.107971,-0.474731,-1.935666,0.166119,-2.534106,-1.709322,-1.660832,-11.937344,114.083928,36.716696,-11.974163,0.000000,0.000000,
160204530,113.888224,113.888224,35.648728,3,-0.886047,-0.023010,-0.108704,-0.450073,-1.418312,0.291130,-2.602696,-1.606145,-1.112902,-12.054152,114.401672,36.577853,-12.026626,0.000000,0.000000,
160215619,114.605234,114.605234,35.644200,3,-0.898315,-0.016846,-0.109619,-0.425049,-1.253610,0.394544,-2.366764,-1.570316,-0.859193,-11.831991,114.844684,36.469632,-11.898970,0.000000,0.000000,
160225029,115.023112,115.023112,35.644200,3,-0.909790,-0.010681,-0.110718,-0.399841,-1.187351,0.333252,-2.445123,-1.540570,-0.804138,-11.921000,115.220757,36.378118,-11.913418,0.000000,0.000000,
160235854,114.425822,114.425822,35.653256,3,-0.920471,-0.004578,-0.111938,-0.374390,-1.277041,0.521006,-2.463897,-1.769902,-0.693994,-11.899480,115.464939,36.158433,-11.904280,0.000000,0.000000,
160245100,115.949412,115.949412,35.639671,3,-0.930359,0.001587,-0.113281,-0.348694,-1.387495,0.189228,-2.286713,-1.625325,-0.944320,-11.719363,115.889519,36.106371,-11.782996,0.000000,0.000000,
160254840,115.888193,115.888193,35.653256,3,-0.939453,0.007568,-0.114746,-0.322815,-1.356732,0.431367,-2.508272,-1.833593,-0.695727,-11.915625,116.240376,35.990165,-11.869984,0.000000,0.000000,
160265614,115.740183,115.740183,35.639671,3,-0.947754,0.013367,-0.116211,-0.296814,-1.368722,0.475986,-2.279736,-1.853137,-0.585934,-11.680647,116.533801,35.807429,-11.745805,0.000000,0.000000,
160275025,116.605845,116.605845,35.648728,3,-0.955261,0.019043,-0.117676,-0.270569,-1.169578,0.282437,-2.505100,-1.657687,-0.604826,-11.948522,116.883738,35.703224,-11.878761,0.000000,0.000000,
160284777,117.022776,117.022776,35.648728,3,-0.962097,0.024597,-0.119202,-0.244141,-0.978099,0.493033,-2.335259,-1.583695,-0.263292,-11.823592,117.257379,35.603757,-11.842577,0.000000,0.000000,
160295804,117.322001,117.322001,35.644200,3,-0.968079,0.030090,-0.120789,-0.217529,-1.045110,0.246639,-2.313276,-1.530509,-0.471928,-11.788407,117.661369,35.481073,-11.807048,0.000000,0.000000,
160305263,117.740519,117.740519,35.644200,3,-0.973328,0.035522,-0.122375,-0.190918,-0.780558,0.493078,-2.298706,-1.406897,-0.105270,-11.834816,118.011280,35.378281,-11.825260,0.000000,0.000000,
160316058,117.441782,117.441782,35.648728,3,-0.977722,0.040833,-0.123962,-0.164185,-0.651037,0.355088,-2.257636,-1.236542,-0.145875,-11.829854,118.285815,35.185463,-11.828275,0.000000,0.000000,
160325291,118.995096,118.995096,35.644200,3,-0.981445,0.046021,-0.125549,-0.137451,-0.409800,0.579417,-2.353386,-1.091898,0.148876,-11.995685,118.743022,35.156908,-11.938071,0.000000,0.000000,
160334942,118.905100,118.905100,35.648728,3,-0.984375,0.051086,-0.127014,-0.110596,-0.361852,0.525386,-2.105136,-0.965688,0.164569,-11.766792,119.112117,35.061829,-11.825734,0.000000,0.000000,
160345782,119.741221,119.741221,35.648728,3,-0.986572,0.056030,-0.128479,-0.083801,-0.486663,0.451955,-2.319206,-1.118061,0.058954,-11.943333,119.609273,35.003716,-11.902861,0.000000,0.000000,
160355131,119.831248,119.831248,35.644200,3,-0.988037,0.060791,-0.129700,-0.057007,-0.519093,0.753782,-2.085698,-1.115031,0.409072,-11.744771,119.977583,34.919562,-11.799174,0.000000,0.000000,
160364727,119.950541,119.950541,35.648728,3,-0.988770,0.065430,-0.130859,-0.030334,-0.404450,0.493663,-2.206421,-0.994768,0.167822,-11.863880,120.307062,34.802639,-11.841612,0.000000,0.000000,
160375744,120.369150,120.369150,35.648728,3,-0.988831,0.069824,-0.131714,-0.003723,-0.462288,0.791858,-2.142366,-1.032510,0.486965,-11.837864,120.701388,34.679234,-11.839154,0.000000,0.000000,
160385360,121.295420,121.295420,35.644200,3,-0.988159,0.074036,-0.132385,0.023010,-0.362569,0.316820,-2.149410,-0.911921,0.031536,-11.805343,121.145579,34.634248,-11.816976,0.000000,0.000000,
160396251,120.877268,120.877268,35.644200,3,-0.986816,0.078064,-0.132874,0.049683,-0.326477,0.701117,-2.199151,-0.858137,0.418518,-11.933249,121.471802,34.473646,-11.893237,0.000000,0.000000,
160405674,121.086619,121.086619,35.644200,3,-0.984741,0.081848,-0.133240,0.076355,-0.460974,0.584596,-2.127073,-0.947716,0.350515,-11.813634,121.723960,34.317606,-11.841030,0.000000,0.000000,
160415239,121.623026,121.623026,35.648728,3,-0.981995,0.085388,-0.133423,0.103088,-0.231741,0.526512,-2.031240,-0.698198,0.273088,-11.775261,122.032776,34.193415,-11.797894,0.000000,0.000000,
160426168,122.251047,122.251047,35.648728,3,-0.978516,0.088745,-0.133423,0.129822,-0.296513,0.542781,-2.201612,-0.780662,0.291124,-11.933107,122.446634,34.087854,-11.886575,0.000000,0.000000,
160435472,122.550425,122.550425,35.644200,3,-0.974304,0.091858,-0.133301,0.156555,-0.092485,0.418163,-1.989179,-0.546581,0.145813,-11.757752,122.782724,33.990516,-11.802083,0.000000,0.000000,
160445307,122.579752,122.579752,35.653256,3,-0.969421,0.094727,-0.132935,0.183167,-0.237343,0.473367,-2.201102,-0.708732,0.221723,-11.940010,123.078445,33.849971,-11.892546,0.000000,0.000000,
160456308,123.297343,123.297343,35.648728,3,-0.963867,0.097412,-0.132507,0.209656,-0.010924,0.340536,-1.908786,-0.450742,0.053396,-11.684408,123.491126,33.746216,-11.756034,0.000000,0.000000,
160465740,123.715067,123.715067,35.648728,3,-0.957581,0.099915,-0.131836,0.235901,-0.215022,0.266914,-2.145420,-0.718907,0.053780,-11.855767,123.850838,33.660295,-11.821444,0.000000,0.000000,
160476431,123.506205,123.506205,35.648728,3,-0.950684,0.102173,-0.131042,0.261963,-0.014733,0.476828,-2.005024,-0.403769,0.155262,-11.814793,124.145469,33.494581,-11.817083,0.000000,0.000000,
160485900,123.834391,123.834391,35.653256,3,-0.943115,0.104309,-0.130005,0.287659,0.044549,0.149832,-2.030019,-0.512729,-0.149780,-11.769182,124.403832,33.347147,-11.785668,0.000000,0.000000,
160495467,124.522776,124.522776,35.639671,3,-0.934937,0.106201,-0.128906,0.313110,0.044922,0.249169,-2.007990,-0.447158,-0.074548,-11.768289,124.744592,33.248159,-11.774269,0.000000,0.000000,
160507493,124.671458,124.671458,35.653256,3,-0.926147,0.107971,-0.127563,0.338135,0.086006,0.111453,-1.969966,-0.534182,-0.077294,-11.699505,125.129887,33.099107,-11.725234,0.000000,0.000000,
160516355,125.478739,125.478739,35.644200,3,-0.916809,0.109619,-0.126099,0.362793,0.232047,0.110129,-2.004601,-0.396807,-0.301752,-11.754636,125.488142,33.036004,-11.744516,0.000000,0.000000,
160525815,125.897043,125.897043,35.644200,3,-0.906860,0.111084,-0.124512,0.387024,0.173806,0.318876,-1.962358,-0.281889,-0.117168,-11.778037,125.876688,32.971475,-11.766500,0.000000,0.000000,
160537410,126.016428,126.016428,35.648728,3,-0.896423,0.112488,-0.122681,0.410828,0.295309,0.033431,-1.885173,-0.435950,-0.273044,-11.625658,126.284395,32.852427,-11.674126,0.000000,0.000000,
160546316,126.435282,126.435282,35.648728,3,-0.885437,0.113770,-0.120667,0.434143,0.132248,0.168905,-2.046394,-0.439884,-0.198118,-11.798798,126.604777,32.764904,-11.755894,0.000000,0.000000,
160556823,127.242686,127.242686,35.639671,3,-0.874023,0.114990,-0.118469,0.456970,0.297582,-0.044387,-1.827343,-0.441602,-0.441241,-11.548111,127.067876,32.716269,-11.619613,0.000000,0.000000,
160566248,126.853647,126.853647,35.648728,3,-0.862183,0.116150,-0.116089,0.479309,0.270666,-0.108448,-2.047739,-0.588044,-0.470187,-11.725150,127.335585,32.581066,-11.688832,0.000000,0.000000,
160575844,127.242686,127.242686,35.639671,3,-0.849792,0.117188,-0.113464,0.501221,0.321352,-0.170632,-1.720282,-0.533007,-0.505049,-11.398267,127.630335,32.461131,-11.498260,0.000000,0.000000,
160586785,127.780466,127.780466,35.644200,3,-0.837036,0.118225,-0.110657,0.522644,0.400196,-0.028417,-1.982033,-0.470192,-0.533501,-11.696358,128.012891,32.350209,-11.628186,0.000000,0.000000,
160596054,128.408365,128.408365,35.644200,3,-0.823853,0.119141,-0.107666,0.543518,0.426582,-0.123252,-1.794897,-0.499560,-0.574158,-11.488511,128.386308,32.289320,-11.536575,0.000000,0.000000,
160605912,129.155710,129.155710,35.648728,3,-0.810364,0.120117,-0.104492,0.563843,0.483070,-0.313305,-1.886346,-0.690273,-0.702030,-11.505207,128.848044,32.263159,-11.515999,0.000000,0.000000,
160616611,129.574167,129.574167,35.648728,3,-0.796570,0.121033,-0.101196,0.583618,0.631020,-0.273765,-1.860545,-0.629867,-0.817172,-11.490999,129.328514,32.222442,-11.499599,0.000000,0.000000,
160626114,129.155710,129.155710,35.648728,3,-0.782471,0.121948,-0.097717,0.602783,0.388065,-0.380279,-1.801900,-0.797336,-0.593053,-11.396033,129.601858,32.094324,-11.431674,0.000000,0.000000,
160637004,130.292246,130.292246,35.644200,3,-0.768066,0.122864,-0.094116,0.621399,0.426295,-0.361271,-1.829895,-0.794213,-0.629993,-11.425977,130.079986,32.048384,-11.427935,0.000000,0.000000,
160646414,129.574167,129.574167,35.648728,3,-0.753479,0.123779,-0.090393,0.639343,0.427158,-0.311168,-1.799025,-0.751514,-0.602158,-11.411125,130.286314,31.882519,-11.416912,0.000000,0.000000,
160655973,130.321055,130.321055,35.653256,3,-0.738770,0.124756,-0.086487,0.656677,0.447569,-0.558486,-1.803780,-1.000549,-0.634518,-11.339747,130.597067,31.778092,-11.366302,0.000000,0.000000,
160667056,130.621195,130.621195,35.648728,3,-0.723816,0.125854,-0.082397,0.673401,0.546489,-0.330444,-1.755686,-0.782541,-0.691987,-11.354289,130.953085,31.654977,-11.358423,0.000000,0.000000,
160676422,130.859019,130.859019,35.657785,3,-0.708679,0.127014,-0.078247,0.689575,0.342642,-0.704769,-1.731338,-1.161048,-0.478612,-11.234738,131.231460,31.538927,-11.277302,0.000000,0.000000,
160686173,130.740122,130.740122,35.653256,3,-0.693359,0.128235,-0.073914,0.705261,0.423274,-0.482128,-1.931783,-1.016148,-0.558800,-11.475538,131.446471,31.371016,-11.407321,0.000000,0.000000,
160697140,131.248728,131.248728,35.648728,3,-0.677856,0.129517,-0.069519,0.720398,0.473830,-0.722771,-1.628092,-1.175925,-0.547749,-11.116960,131.752828,31.226532,-11.216883,0.000000,0.000000,
160706479,132.475626,132.475626,35.639671,3,-0.662170,0.130920,-0.065002,0.734985,0.338343,-0.519243,-1.836418,-1.043188,-0.420153,-11.379417,132.179328,31.203777,-11.323481,0.000000,0.000000,
160717248,131.876322,131.876322,35.648728,3,-0.646362,0.132324,-0.060425,0.749023,0.452459,-0.604896,-1.665874,-1.100529,-0.491310,-11.185570,132.457967,31.048744,-11.233031,0.000000,0.000000,
160726570,132.623911,132.623911,35.653256,3,-0.630310,0.133850,-0.055847,0.762634,0.342521,-0.665208,-1.730469,-1.162221,-0.347781,-11.245385,132.777994,30.963091,-11.241133,0.000000,0.000000,
160736221,133.133158,133.133158,35.648728,3,-0.614197,0.135498,-0.051208,0.775757,0.351276,-0.537099,-1.747162,-1.055774,-0.366367,-11.290733,133.142764,30.894566,-11.273663,0.000000,0.000000,
160747220,132.833475,132.833475,35.653256,3,-0.597961,0.137207,-0.046570,0.788330,0.303337,-0.704648,-1.732691,-1.210141,-0.251292,-11.242799,133.423981,30.735887,-11.253421,0.000000,0.000000,
160756673,133.671244,133.671244,35.653256,3,-0.581604,0.138977,-0.041870,0.800415,0.281138,-0.537756,-1.789243,-1.062409,-0.265021,-11.344043,133.760327,30.657165,-11.312856,0.000000,0.000000,
160766373,133.671244,133.671244,35.653256,3,-0.565186,0.140808,-0.037231,0.812012,0.243187,-0.536765,-1.750885,-1.045742,-0.213914,-11.316752,134.040494,30.537234,-11.315412,0.000000,0.000000,
160777114,134.060557,134.060557,35.644200,3,-0.548645,0.142761,-0.032532,0.823120,0.243763,-0.724681,-1.755013,-1.211351,-0.119584,-11.278347,134.371602,30.418356,-11.291102,0.000000,0.000000,
160786561,134.717631,134.717631,35.653256,3,-0.532043,0.144714,-0.027893,0.833801,-0.026867,-0.647998,-1.911333,-1.084579,0.096598,-11.507684,134.723238,30.349399,-11.433150,0.000000,0.000000,
160797204,134.927775,134.927775,35.653256,3,-0.515320,0.146729,-0.023193,0.843994,0.100390,-0.929750,-1.665372,-1.304530,0.160010,-11.193025,135.083924,30.253462,-11.275658,0.000000,0.000000,
160806667,135.317667,135.317667,35.644200,3,-0.498535,0.148804,-0.018494,0.853821,0.100551,-0.761180,-1.641822,-1.140168,0.106522,-11.207504,135.413486,30.174341,-11.230957,0.000000,0.000000,
160816394,135.646250,135.646250,35.648728,3,-0.481689,0.150818,-0.013855,0.863159,-0.098288,-0.890885,-1.730840,-1.169689,0.353084,-11.322995,135.750018,30.090692,-11.291321,0.000000,0.000000,
160827422,136.094309,136.094309,35.657785,3,-0.464844,0.152954,-0.009277,0.872009,-0.100158,-0.723619,-1.766858,-1.020766,0.270995,-11.395061,136.145633,30.004078,-11.359359,0.000000,0.000000,
160836915,136.483195,136.483195,35.648728,3,-0.447998,0.155151,-0.004761,0.880432,-0.292663,-0.928536,-1.678910,-1.043343,0.565691,-11.339794,136.493182,29.935458,-11.346525,0.000000,0.000000,
160846595,136.393564,136.393564,35.653256,3,-0.431091,0.157288,-0.000366,0.888489,-0.089200,-0.871570,-1.749923,-1.114554,0.377914,-11.371726,136.763775,29.813998,-11.363054,0.000000,0.000000,
160857668,136.603220,136.603220,35.653256,3,-0.414185,0.159485,0.003906,0.896118,-0.440795,-0.908735,-1.703408,-0.895722,0.688692,-11.427752,137.063131,29.669261,-11.405488,0.000000,0.000000,
160866882,137.021982,137.021982,35.653256,3,-0.397156,0.161682,0.008118,0.903381,-0.627060,-0.828602,-1.688245,-0.690627,0.772423,-11.493885,137.328304,29.558546,-11.463465,0.000000,0.000000,
160877724,137.560282,137.560282,35.657785,3,-0.380127,0.163818,0.012207,0.910217,-0.551036,-0.870144,-1.765830,-0.757685,0.738017,-11.548525,137.691545,29.459788,-11.519253,0.000000,0.000000,
160886929,137.530924,137.530924,35.648728,3,-0.363098,0.165955,0.016113,0.916687,-0.528272,-0.779019,-1.663918,-0.656795,0.668450,-11.469855,137.932156,29.335649,-11.486855,0.000000,0.000000,
160896832,136.812327,136.812327,35.653256,3,-0.346069,0.168091,0.019958,0.922791,-0.462105,-0.810641,-1.741624,-0.718281,0.636592,-11.526823,138.012496,29.094194,-11.513073,0.000000,0.000000,
160907745,137.740580,137.740580,35.648728,3,-0.329041,0.170227,0.023560,0.928528,-0.642213,-0.637367,-1.535873,-0.395828,0.653906,-11.412883,138.278402,28.938730,-11.447363,0.000000,0.000000,
160917207,138.158884,138.158884,35.648728,3,-0.312134,0.172180,0.026917,0.933899,-0.527044,-0.847600,-1.635655,-0.614431,0.721543,-11.468883,138.529319,28.816392,-11.461478,0.000000,0.000000,
160926757,138.787913,138.787913,35.648728,3,-0.295166,0.174011,0.030029,0.938965,-0.606474,-0.580319,-1.632496,-0.375876,0.547925,-11.511459,138.852392,28.735967,-11.494258,0.000000,0.000000,
160937547,138.787913,138.787913,35.648728,3,-0.278137,0.175781,0.033020,0.943726,-0.544262,-0.756788,-1.554952,-0.471448,0.674469,-11.415579,139.149720,28.605464,-11.442655,0.000000,0.000000,
160946996,139.206797,139.206797,35.648728,3,-0.261169,0.177429,0.035889,0.948181,-0.498597,-0.511421,-1.627252,-0.379706,0.419626,-11.486854,139.430186,28.503474,-11.471644,0.000000,0.000000,
160958997,139.536021,139.536021,35.653256,3,-0.244141,0.178955,0.038574,0.952332,-0.513551,-0.716449,-1.513356,-0.428524,0.728635,-11.385620,139.791274,28.378798,-11.415223,0.000000,0.000000,
160967866,139.834849,139.834849,35.648728,3,-0.227173,0.180298,0.041077,0.956116,-0.439305,-0.620396,-1.627611,-0.447184,0.479279,-11.473402,140.050680,28.282131,-11.453381,0.000000,0.000000,
160977306,140.583018,140.583018,35.653256,3,-0.210144,0.181580,0.043457,0.959656,-0.380004,-0.511350,-1.603335,-0.423515,0.344492,-11.435851,140.416826,28.235280,-11.441881,0.000000,0.000000,
160988869,140.702555,140.702555,35.657785,3,-0.193176,0.182678,0.045776,0.962891,-0.474488,-0.637448,-1.510264,-0.362122,0.615036,-11.384537,140.796081,28.136016,-11.404270,0.000000,0.000000,
160997770,140.374338,140.374338,35.653256,3,-0.176147,0.183716,0.047974,0.965881,-0.360533,-0.452069,-1.601354,-0.389759,0.281938,-11.428010,140.967043,27.985007,-11.419843,0.000000,0.000000,
161007165,141.001932,141.001932,35.653256,3,-0.159180,0.184631,0.049988,0.968567,-0.452341,-0.566539,-1.428642,-0.273347,0.441356,-11.311557,141.235996,27.882717,-11.348821,0.000000,0.000000,
161018196,141.092142,141.092142,35.648728,3,-0.142212,0.185425,0.052002,0.970947,-0.476661,-0.371279,-1.544110,-0.219242,0.236343,-11.421856,141.515942,27.740551,-11.396723,0.000000,0.000000,
161027453,141.421427,141.421427,35.653256,3,-0.125305,0.186096,0.053833,0.973022,-0.452548,-0.388296,-1.414803,-0.189306,0.250557,-11.305298,141.754559,27.625056,-11.336761,0.000000,0.000000,
161038274,141.930063,141.930063,35.648728,3,-0.108398,0.186707,0.055603,0.974854,-0.472560,-0.160541,-1.400555,-0.106441,0.030214,-11.284004,142.085694,27.522821,-11.302158,0.000000,0.000000,
161047489,142.468607,142.468607,35.653256,3,-0.091492,0.187256,0.057373,0.976379,-0.450473,-0.069851,-1.318499,-0.076627,-0.057144,-11.191375,142.410545,27.463841,-11.229497,0.000000,0.000000,
161057343,142.259897,142.259897,35.653256,3,-0.074707,0.187744,0.058960,0.977600,-0.520277,-0.179301,-1.362970,-0.042834,0.040145,-11.265889,142.652434,27.335762,-11.253366,0.000000,0.000000,
161068050,142.169688,142.169688,35.657785,3,-0.057983,0.188110,0.060608,0.978577,-0.678296,-0.139689,-1.387372,0.098807,-0.005479,-11.348763,142.854087,27.159672,-11.315936,0.000000,0.000000,
161077560,142.978342,142.978342,35.648728,3,-0.041321,0.188354,0.062073,0.979248,-0.735597,-0.237541,-1.351864,0.159644,0.082573,-11.343628,143.135127,27.066047,-11.334098,0.000000,0.000000,
161087269,143.216959,143.216959,35.657785,3,-0.024841,0.188538,0.063660,0.979675,-0.640244,0.047671,-1.401747,0.080498,-0.220873,-11.328869,143.412692,26.965351,-11.330668,0.000000,0.000000,
161098317,143.216959,143.216959,35.657785,3,-0.008362,0.188599,0.065247,0.979858,-0.679347,-0.239461,-1.429257,0.091868,0.042396,-11.396388,143.673257,26.817344,-11.373772,0.000000,0.000000,
161107614,144.235483,144.235483,35.648728,3,0.007935,0.188599,0.066956,0.979736,-0.539577,0.148009,-1.316765,0.011592,-0.343114,-11.193750,144.027396,26.778259,-11.255699,0.000000,0.000000,
161118571,143.936533,143.936533,35.653256,3,0.024292,0.188477,0.068665,0.979370,-0.719254,0.067477,-1.413948,0.134543,-0.304003,-11.349328,144.303102,26.643614,-11.317107,0.000000,0.000000,
161127863,144.355601,144.355601,35.653256,3,0.040588,0.188110,0.070435,0.978760,-0.506774,0.169871,-1.216036,0.002455,-0.371148,-11.075200,144.560041,26.546883,-11.158448,0.000000,0.000000,
161137610,144.774668,144.774668,35.653256,3,0.056824,0.187683,0.072205,0.977905,-0.771856,0.204137,-1.501950,0.123808,-0.489818,-11.423661,144.858414,26.459990,-11.332392,0.000000,0.000000,
161148329,145.284006,145.284006,35.648728,3,0.072937,0.187073,0.074036,0.976807,-0.517277,0.169467,-1.236230,-0.016566,-0.403225,-11.090606,145.221100,26.389289,-11.173810,0.000000,0.000000,
161157858,145.104075,145.104075,35.657785,3,0.088989,0.186340,0.075867,0.975464,-0.770502,0.205006,-1.462238,0.120666,-0.528750,-11.378293,145.450123,26.267346,-11.307925,0.000000,0.000000,
161167560,146.451700,146.451700,35.653256,3,0.104980,0.185547,0.077759,0.973938,-0.557562,0.268056,-1.255267,-0.018048,-0.535960,-11.096291,145.891919,26.273707,-11.169117,0.000000,0.000000,
161178595,145.223673,145.223673,35.662313,3,0.120911,0.184570,0.079773,0.972107,-0.522874,0.225332,-1.393774,-0.110384,-0.513327,-11.211853,146.056029,26.074335,-11.197149,0.000000,0.000000,
161188024,146.032572,146.032572,35.653256,3,0.136780,0.183411,0.081909,0.970032,-0.657392,0.336723,-1.296843,0.012151,-0.651698,-11.139468,146.296998,25.966613,-11.159318,0.000000,0.000000,
161198854,146.661021,146.661021,35.653256,3,0.152527,0.182129,0.084167,0.967712,-0.598100,0.227748,-1.297202,-0.022716,-0.547909,-11.136415,146.645752,25.887513,-11.144295,0.000000,0.000000,
161208162,146.422343,146.422343,35.644200,3,0.168274,0.180725,0.086548,0.965149,-0.492123,0.473802,-1.327760,-0.211722,-0.757770,-11.065893,146.844390,25.758678,-11.092875,0.000000,0.000000,
161217874,146.571329,146.571329,35.657785,3,0.183899,0.179199,0.089111,0.962341,-0.656502,0.267925,-1.278508,-0.002484,-0.641107,-11.120755,147.042920,25.619554,-11.111161,0.000000,0.000000,
161228577,146.990488,146.990488,35.657785,3,0.199402,0.177490,0.091736,0.959351,-0.575932,0.070746,-1.240433,-0.001420,-0.441960,-11.099481,147.306673,25.494809,-11.103501,0.000000,0.000000,
161238031,147.499949,147.499949,35.653256,3,0.214844,0.175659,0.094482,0.956055,-0.562978,0.264580,-1.414115,-0.159319,-0.632639,-11.198654,147.583387,25.411125,-11.165908,0.000000,0.000000,
161247725,147.709788,147.709788,35.653256,3,0.230225,0.173645,0.097290,0.952576,-0.515074,-0.106593,-1.202601,0.019793,-0.274924,-11.078869,147.852861,25.318089,-11.108822,0.000000,0.000000,
161258726,147.619547,147.619547,35.657785,3,0.245483,0.171570,0.100281,0.948792,-0.431921,0.068118,-1.334637,-0.175554,-0.417993,-11.133980,148.087026,25.169241,-11.125323,0.000000,0.000000,
161268182,148.338389,148.338389,35.653256,3,0.260742,0.169373,0.103455,0.944763,-0.592912,-0.026576,-1.173787,0.043611,-0.413741,-11.046038,148.371613,25.093807,-11.073321,0.000000,0.000000,
161279131,148.638529,148.638529,35.648728,3,0.275940,0.166992,0.106689,0.940552,-0.538587,0.267561,-1.274446,-0.178851,-0.656766,-11.032887,148.695704,25.003399,-11.046801,0.000000,0.000000,
161288602,148.967509,148.967509,35.653256,3,0.291016,0.164490,0.110046,0.936035,-0.571896,0.192254,-1.108762,-0.068857,-0.614992,-10.899073,148.982951,24.931736,-10.949909,0.000000,0.000000,
161298181,149.296549,149.296549,35.657785,3,0.306030,0.161926,0.113403,0.931274,-0.408520,-0.048454,-1.237287,-0.129562,-0.346746,-11.054353,149.279971,24.861720,-11.018410,0.000000,0.000000,
161308828,149.387308,149.387308,35.653256,3,0.320862,0.159241,0.116760,0.926331,-0.504869,0.101725,-1.167916,-0.120674,-0.527231,-10.957543,149.564153,24.757211,-10.978489,0.000000,0.000000,
161318293,149.806620,149.806620,35.653256,3,0.335632,0.156433,0.120056,0.921143,-0.408025,0.011323,-1.216127,-0.166615,-0.419398,-11.001497,149.843387,24.680935,-10.993578,0.000000,0.000000,
161328004,150.016520,150.016520,35.653256,3,0.350159,0.153503,0.123352,0.915771,-0.350290,0.188732,-1.230042,-0.315540,-0.519329,-10.941111,150.114952,24.594353,-10.959166,0.000000,0.000000,
161338996,150.555491,150.555491,35.657785,3,0.364563,0.150513,0.126770,0.910156,-0.345891,0.191556,-1.100978,-0.288260,-0.515722,-10.810170,150.467132,24.525269,-10.861442,0.000000,0.000000,
161348461,150.225382,150.225382,35.653256,3,0.378845,0.147400,0.130249,0.904297,-0.292565,0.148119,-1.268592,-0.368493,-0.467531,-10.964575,150.653491,24.393574,-10.929085,0.000000,0.000000,
161359365,150.974314,150.974314,35.657785,3,0.393127,0.144165,0.133667,0.898254,-0.383408,0.272103,-1.041026,-0.318600,-0.591870,-10.718477,150.978945,24.313172,-10.790952,0.000000,0.000000,
161368815,150.555491,150.555491,35.657785,3,0.407166,0.140869,0.137024,0.891968,-0.306534,-0.046367,-1.124694,-0.187974,-0.343453,-10.893308,151.128885,24.161146,-10.858086,0.000000,0.000000,
161378316,150.765421,150.765421,35.657785,3,0.421082,0.137451,0.140381,0.885498,-0.238660,0.250130,-1.115807,-0.438895,-0.481501,-10.764076,151.289920,24.017341,-10.796429,0.000000,0.000000,
161388990,151.693888,151.693888,35.653256,3,0.434875,0.134033,0.143738,0.878784,-0.286447,0.033129,-1.102423,-0.253394,-0.394961,-10.834270,151.621292,23.947434,-10.821246,0.000000,0.000000,
161398447,151.484476,151.484476,35.653256,3,0.448486,0.130554,0.147156,0.871887,-0.222114,0.267894,-1.204048,-0.512372,-0.493566,-10.829052,151.821662,23.829322,-10.826367,0.000000,0.000000,
161408449,151.813547,151.813547,35.657785,3,0.461853,0.127014,0.150513,0.864807,-0.176691,0.152783,-1.036525,-0.393544,-0.377075,-10.712441,152.057953,23.721245,-10.751646,0.000000,0.000000,
161420385,151.813547,151.813547,35.657785,3,0.475098,0.123413,0.153870,0.857544,-0.181733,0.248644,-1.173345,-0.579205,-0.310501,-10.800992,152.294518,23.564606,-10.784012,0.000000,0.000000,
161429196,152.922678,152.922678,35.644200,3,0.488220,0.119812,0.157227,0.850037,-0.180935,0.209517,-1.154358,-0.496551,-0.432107,-10.795726,152.619473,23.543400,-10.791691,0.000000,0.000000,
161440524,153.071787,153.071787,35.657785,3,0.501160,0.116211,0.160583,0.842346,-0.099010,0.013207,-1.076571,-0.410129,-0.109167,-10.791485,152.970253,23.472923,-10.791554,0.000000,0.000000,
161449322,152.862864,152.862864,35.657785,3,0.513977,0.112549,0.163940,0.834473,-0.102915,0.070159,-1.184476,-0.443712,-0.302777,-10.868034,153.156219,23.364677,-10.841715,0.000000,0.000000,
161458755,153.071787,153.071787,35.657785,3,0.526550,0.108948,0.167297,0.826355,-0.018611,0.093390,-1.012558,-0.437982,-0.211676,-10.694853,153.360346,23.254171,-10.745393,0.000000,0.000000,
161469725,153.461832,153.461832,35.648728,3,0.539001,0.105347,0.170654,0.818054,0.016319,-0.028456,-1.152803,-0.390541,-0.168824,-10.870110,153.633785,23.146436,-10.827190,0.000000,0.000000,
161478932,153.791514,153.791514,35.653256,3,0.551270,0.101746,0.173950,0.809631,0.060060,0.073367,-1.010285,-0.445437,-0.145268,-10.706436,153.875978,23.066054,-10.747991,0.000000,0.000000,
161488777,154.000986,154.000986,35.653256,3,0.563293,0.098145,0.177185,0.801025,0.082658,-0.113089,-0.944240,-0.271835,-0.059477,-10.716253,154.125937,22.974693,-10.727175,0.000000,0.000000,
161499477,154.720225,154.720225,35.648728,3,0.575195,0.094604,0.180359,0.792297,0.076267,0.090914,-1.108453,-0.506341,-0.155063,-10.784717,154.482397,22.926446,-10.764913,0.000000,0.000000,
161508987,154.541208,154.541208,35.657785,3,0.586914,0.091003,0.183411,0.783325,0.141221,0.015303,-0.939384,-0.393633,-0.042340,-10.665060,154.710961,22.831791,-10.699422,0.000000,0.000000,
161519766,154.930247,154.930247,35.648728,3,0.598450,0.087524,0.186401,0.774231,0.205979,0.111604,-1.044051,-0.532436,-0.027631,-10.727877,154.997503,22.741042,-10.718084,0.000000,0.000000,
161529234,154.331187,154.331187,35.657785,3,0.609802,0.084045,0.189270,0.765015,0.190136,-0.024627,-0.948489,-0.366750,0.008029,-10.695570,155.087552,22.563045,-10.703321,0.000000,0.000000,
161538839,155.559794,155.559794,35.648728,3,0.620972,0.080566,0.192017,0.755676,0.167967,0.132375,-1.005258,-0.521799,-0.053087,-10.683710,155.392162,22.514173,-10.690457,0.000000,0.000000,
161549846,155.470530,155.470530,35.653256,3,0.631897,0.077209,0.194702,0.746216,0.168765,0.093248,-0.986271,-0.476573,-0.040400,-10.683682,155.654002,22.405430,-10.686013,0.000000,0.000000,
161559188,155.769816,155.769816,35.648728,3,0.642578,0.073853,0.197327,0.736694,0.121447,0.054925,-0.939192,-0.408582,-0.079198,-10.651270,155.884539,22.319292,-10.663226,0.000000,0.000000,
161568996,155.799753,155.799753,35.657785,3,0.653076,0.070618,0.199768,0.727051,0.058767,0.052717,-1.050431,-0.439042,-0.155075,-10.744804,156.087057,22.204274,-10.716731,0.000000,0.000000,
161579706,156.309611,156.309611,35.653256,3,0.663330,0.067505,0.202087,0.717346,0.085891,-0.061464,-0.843873,-0.258765,-0.090737,-10.604021,156.365931,22.115882,-10.642807,0.000000,0.000000,
161589204,156.848398,156.848398,35.657785,3,0.673523,0.064392,0.204346,0.707458,0.100224,0.014338,-0.990378,-0.387318,-0.106818,-10.710122,156.665845,22.069573,-10.686955,0.000000,0.000000,
161598873,157.238596,157.238596,35.648728,3,0.683594,0.061340,0.206543,0.697327,0.214804,-0.001648,-0.798458,-0.308599,0.038423,-10.563534,156.985937,22.032536,-10.606004,0.000000,0.000000,
161609632,156.729197,156.729197,35.653256,3,0.693542,0.058350,0.208618,0.687073,0.024599,0.036317,-0.903299,-0.370595,-0.159925,-10.609136,157.174307,21.889378,-10.608059,0.000000,0.000000,
161619207,157.058970,157.058970,35.657785,3,0.703308,0.055420,0.210632,0.676697,0.121690,-0.024197,-0.940930,-0.334446,-0.075985,-10.684728,157.361807,21.773812,-10.658345,0.000000,0.000000,
161630135,157.058970,157.058970,35.657785,3,0.712891,0.052490,0.212524,0.666260,0.124640,-0.101581,-0.863244,-0.223576,-0.073258,-10.644844,157.542395,21.623039,-10.649491,0.000000,0.000000,
161639429,158.198099,158.198099,35.653256,3,0.722229,0.049683,0.214355,0.655701,0.170241,0.054556,-0.947428,-0.395576,-0.031927,-10.676303,157.865716,21.599673,-10.667073,0.000000,0.000000,
161649268,157.358835,157.358835,35.653256,3,0.731506,0.046936,0.216125,0.645020,0.126610,-0.080497,-0.803242,-0.223568,-0.063545,-10.580755,157.982843,21.437842,-10.610462,0.000000,0.000000,
161660253,158.707560,158.707560,35.648728,3,0.740540,0.044189,0.217773,0.634216,0.288460,-0.044711,-0.945539,-0.285691,0.067322,-10.742454,158.353416,21.402182,-10.697028,0.000000,0.000000,
161669709,157.988016,157.988016,35.653256,3,0.749329,0.041504,0.219421,0.623413,0.140948,0.104316,-0.937429,-0.434812,-0.045525,-10.643914,158.486873,21.259282,-10.662194,0.000000,0.000000,
161679320,158.318369,158.318369,35.657785,3,0.757996,0.038879,0.220947,0.612488,0.274379,0.018385,-0.776137,-0.271499,0.095110,-10.565972,158.659168,21.138497,-10.599086,0.000000,0.000000,
161690338,158.198099,158.198099,35.653256,3,0.766357,0.036316,0.222351,0.601562,0.268382,0.093814,-0.943175,-0.408719,0.076692,-10.698302,158.805074,20.968418,-10.664161,0.000000,0.000000,
161699799,159.337870,159.337870,35.648728,3,0.774536,0.033752,0.223633,0.590637,0.178025,0.059553,-0.719084,-0.298416,0.026524,-10.481667,159.102796,20.930895,-10.544466,0.000000,0.000000,
161710608,159.877329,159.877329,35.653256,3,0.782593,0.031189,0.224915,0.579651,0.121387,0.074706,-0.938758,-0.408389,-0.066784,-10.654782,159.473502,20.904152,-10.616816,0.000000,0.000000,
161719861,159.757548,159.757548,35.648728,3,0.790466,0.028748,0.226013,0.568604,0.046716,0.117117,-0.821460,-0.415407,-0.088854,-10.512015,159.719688,20.839810,-10.548079,0.000000,0.000000,
161729560,159.457102,159.457102,35.653256,3,0.798157,0.026367,0.226990,0.557434,-0.029317,-0.059362,-0.768511,-0.261398,-0.213355,-10.497447,159.872173,20.708104,-10.514872,0.000000,0.000000,
161740290,159.877329,159.877329,35.653256,3,0.805664,0.024109,0.227905,0.546265,0.025033,0.115874,-0.881705,-0.440951,-0.116479,-10.563315,160.094726,20.595361,-10.546645,0.000000,0.000000,
161749719,160.176737,160.176737,35.648728,3,0.812988,0.021851,0.228821,0.534973,-0.047556,-0.078213,-0.729910,-0.247658,-0.232246,-10.458538,160.303815,20.506197,-10.488858,0.000000,0.000000,
161759410,159.997599,159.997599,35.657785,3,0.820251,0.019714,0.229614,0.523560,0.047454,0.097771,-0.802039,-0.388135,-0.079494,-10.507446,160.444742,20.369617,-10.501051,0.000000,0.000000,
161770397,160.507151,160.507151,35.653256,3,0.827271,0.017578,0.230408,0.512085,0.068946,-0.059666,-0.765126,-0.234744,-0.122915,-10.519386,160.679592,20.261096,-10.513076,0.000000,0.000000,
161779893,160.927439,160.927439,35.653256,3,0.834106,0.015503,0.231201,0.500610,0.174580,0.077161,-0.817930,-0.329246,0.011518,-10.573739,160.917928,20.189213,-10.552862,0.000000,0.000000,
161790877,161.646128,161.646128,35.648728,3,0.840698,0.013489,0.231934,0.489136,0.109700,0.020422,-0.712394,-0.263387,-0.042456,-10.467508,161.275467,20.157128,-10.496878,0.000000,0.000000,
161800134,161.766428,161.766428,35.653256,3,0.847107,0.011475,0.232727,0.477600,0.128025,-0.099409,-0.763964,-0.177758,-0.111542,-10.555474,161.553577,20.116310,-10.535307,0.000000,0.000000,
161809814,161.556284,161.556284,35.653256,3,0.853333,0.009460,0.233459,0.466064,0.027801,0.097831,-0.802716,-0.391492,-0.082371,-10.503497,161.748319,20.014945,-10.514444,0.000000,0.000000,
161820678,162.095865,162.095865,35.657785,3,0.859375,0.007507,0.234131,0.454529,0.132303,-0.057023,-0.634031,-0.159241,-0.061495,-10.431379,162.030228,19.940959,-10.459963,0.000000,0.000000,
161830024,162.276072,162.276072,35.648728,3,0.865234,0.005554,0.234741,0.442993,-0.033864,0.096275,-0.884170,-0.457296,-0.143651,-10.551134,162.262170,19.870639,-10.519758,0.000000,0.000000,
161839819,162.306559,162.306559,35.657785,3,0.870911,0.003662,0.235352,0.431396,0.032747,-0.077370,-0.677562,-0.212617,-0.161657,-10.434103,162.464614,19.773476,-10.463579,0.000000,0.000000,
161850833,162.426340,162.426340,35.662313,3,0.876465,0.001770,0.235840,0.419800,-0.091660,-0.061353,-0.869821,-0.369388,-0.281117,-10.544926,162.674589,19.653037,-10.516932,0.000000,0.000000,
161860276,162.306559,162.306559,35.657785,3,0.881775,-0.000061,0.236267,0.408264,-0.067269,-0.058372,-0.730152,-0.303022,-0.232036,-10.434061,162.790778,19.512042,-10.462581,0.000000,0.000000,
161872006,163.146189,163.146189,35.657785,3,0.886902,-0.001831,0.236694,0.396729,-0.028984,-0.168156,-0.770901,-0.258741,-0.192716,-10.502732,163.085541,19.429387,-10.488914,0.000000,0.000000,
161880801,163.116251,163.116251,35.648728,3,0.891846,-0.003540,0.237122,0.385193,-0.109837,-0.099985,-0.831655,-0.353189,-0.298466,-10.508850,163.261771,19.340558,-10.501989,0.000000,0.000000,
161890166,163.985911,163.985911,35.657785,3,0.896667,-0.005310,0.237488,0.373596,-0.163880,-0.265113,-0.708315,-0.228182,-0.431659,-10.405714,163.577993,19.325910,-10.438842,0.000000,0.000000,
161901902,163.566569,163.566569,35.657785,3,0.901306,-0.007080,0.237793,0.362000,-0.226126,-0.187764,-0.797960,-0.391821,-0.339500,-10.441057,163.801942,19.202086,-10.440295,0.000000,0.000000,
161910742,163.656443,163.656443,35.653256,3,0.905762,-0.008850,0.238098,0.350464,-0.272585,-0.284995,-0.732329,-0.308960,-0.513535,-10.375003,163.944026,19.093434,-10.397473,0.000000,0.000000,
161920352,163.985911,163.985911,35.657785,3,0.910034,-0.010620,0.238464,0.338989,-0.330806,-0.304159,-0.714938,-0.337435,-0.563863,-10.325601,164.134879,18.998967,-10.350334,0.000000,0.000000,
161931135,164.166178,164.166178,35.648728,3,0.914124,-0.012390,0.238708,0.327515,-0.069279,-0.287587,-0.814573,-0.225972,-0.416140,-10.526161,164.344985,18.889071,-10.465653,0.000000,0.000000,
161940547,164.196116,164.196116,35.657785,3,0.918091,-0.014221,0.238953,0.315979,-0.199901,-0.451170,-0.634373,-0.147205,-0.583958,-10.331763,164.494445,18.774789,-10.377839,0.000000,0.000000,
161951230,164.616007,164.616007,35.657785,3,0.921814,-0.016052,0.239197,0.304504,-0.207211,-0.168479,-0.816705,-0.402397,-0.387043,-10.445957,164.717178,18.676995,-10.422515,0.000000,0.000000,
161960702,163.985911,163.985911,35.657785,3,0.925415,-0.018066,0.239502,0.293091,-0.201710,-0.303684,-0.670826,-0.270090,-0.467898,-10.335000,164.756697,18.495127,-10.365120,0.000000,0.000000,
161970265,164.196116,164.196116,35.657785,3,0.928833,-0.020142,0.239807,0.281616,-0.184952,-0.355152,-0.760588,-0.278979,-0.518238,-10.427816,164.828183,18.331739,-10.406243,0.000000,0.000000,
161981350,165.756479,165.756479,35.653256,3,0.932129,-0.022278,0.240112,0.270203,-0.202326,-0.323899,-0.691117,-0.289668,-0.492723,-10.343542,165.204553,18.321674,-10.365116,0.000000,0.000000,
161990537,165.125803,165.125803,35.653256,3,0.935242,-0.024536,0.240295,0.258728,-0.221251,-0.561206,-0.697008,-0.197607,-0.701242,-10.360158,165.357691,18.217425,-10.361864,0.000000,0.000000,
162000397,165.246683,165.246683,35.657785,3,0.938232,-0.026855,0.240479,0.247375,-0.183876,-0.374280,-0.731238,-0.283626,-0.533546,-10.382518,165.516036,18.102485,-10.375411,0.000000,0.000000,
162011020,165.665568,165.665568,35.657785,3,0.941040,-0.029297,0.240662,0.236023,-0.178591,-0.549264,-0.596157,-0.153688,-0.664059,-10.274479,165.735756,18.010217,-10.309212,0.000000,0.000000,
162020623,165.336558,165.336558,35.653256,3,0.943665,-0.031738,0.240784,0.224670,-0.220968,-0.432197,-0.674328,-0.282248,-0.589176,-10.306866,165.833491,17.865520,-10.307675,0.000000,0.000000,
162031357,165.996683,165.996683,35.662313,3,0.946167,-0.034302,0.240967,0.213379,-0.217584,-0.430025,-0.575048,-0.248462,-0.570091,-10.220754,166.055235,17.774317,-10.250666,0.000000,0.000000,
162040770,165.665568,165.665568,35.657785,3,0.948486,-0.036987,0.241089,0.202087,-0.120280,-0.559771,-0.614199,-0.147952,-0.653237,-10.305349,166.149112,17.632417,-10.286533,0.000000,0.000000,
162050482,165.966196,165.966196,35.653256,3,0.950684,-0.039734,0.241150,0.190918,-0.179875,-0.351893,-0.611668,-0.285353,-0.488550,-10.258782,166.285641,17.511990,-10.268333,0.000000,0.000000,
162061559,167.046366,167.046366,35.662313,3,0.952759,-0.042664,0.241211,0.179749,-0.221342,-0.531535,-0.696356,-0.300911,-0.681361,-10.304966,166.621440,17.483911,-10.292357,0.000000,0.000000,
162070884,167.136790,167.136790,35.657785,3,0.954651,-0.045715,0.241211,0.168579,-0.125069,-0.325011,-0.728121,-0.317092,-0.474786,-10.378047,166.880545,17.446633,-10.348556,0.000000,0.000000,
162080632,167.347056,167.347056,35.657785,3,0.956360,-0.048828,0.241150,0.157471,-0.116951,-0.428807,-0.502167,-0.181138,-0.523673,-10.174517,167.137457,17.400535,-10.234407,0.000000,0.000000,
162091358,167.856974,167.856974,35.653256,3,0.958008,-0.052063,0.241089,0.146423,-0.161788,-0.283590,-0.649182,-0.343995,-0.429166,-10.283736,167.458220,17.371753,-10.266758,0.000000,0.000000,
162100821,167.347056,167.347056,35.657785,3,0.959473,-0.055359,0.240967,0.135437,-0.081824,-0.282964,-0.606762,-0.257209,-0.394584,-10.281102,167.601332,17.261684,-10.276166,0.000000,0.000000,
162111708,167.856974,167.856974,35.653256,3,0.960754,-0.058838,0.240784,0.124451,-0.102618,-0.353004,-0.648672,-0.283456,-0.474345,-10.305934,167.836526,17.178533,-10.295689,0.000000,0.000000,
162121151,167.556284,167.556284,35.657785,3,0.961975,-0.062378,0.240540,0.113647,-0.162708,-0.204902,-0.667300,-0.391805,-0.346373,-10.292264,167.945793,17.048975,-10.293444,0.000000,0.000000,
162130751,168.607157,168.607157,35.657785,3,0.962952,-0.065979,0.240295,0.102844,-0.137276,-0.320171,-0.510382,-0.271212,-0.423652,-10.154789,168.232795,17.026905,-10.202502,0.000000,0.000000,
162141788,168.607157,168.607157,35.657785,3,0.963867,-0.069641,0.239929,0.092163,-0.163082,-0.304240,-0.689328,-0.387009,-0.445275,-10.301693,168.490192,16.955612,-10.267557,0.000000,0.000000,
162151172,168.156626,168.156626,35.648728,3,0.964661,-0.073364,0.239563,0.081543,-0.197336,-0.181959,-0.529227,-0.371820,-0.301088,-10.151958,168.586386,16.821877,-10.191740,0.000000,0.000000,
162160906,168.607157,168.607157,35.657785,3,0.965332,-0.077148,0.239197,0.070984,-0.264649,-0.329449,-0.505071,-0.402730,-0.447741,-10.074518,168.753545,16.726179,-10.114858,0.000000,0.000000,
162171864,168.517252,168.517252,35.662313,3,0.965820,-0.080933,0.238708,0.060486,-0.178542,-0.123112,-0.547103,-0.389753,-0.246107,-10.179002,168.891968,16.587890,-10.156929,0.000000,0.000000,
162181309,169.237009,169.237009,35.657785,3,0.966248,-0.084778,0.238159,0.050049,-0.233291,-0.278785,-0.443402,-0.371764,-0.372299,-10.038790,169.112825,16.532944,-10.079444,0.000000,0.000000,
162191949,168.817454,168.817454,35.657785,3,0.966492,-0.088623,0.237610,0.039673,-0.160243,-0.124042,-0.586138,-0.391764,-0.242774,-10.216926,169.232830,16.390616,-10.169615,0.000000,0.000000,
162201298,169.837473,169.837473,35.648728,3,0.966675,-0.092529,0.237000,0.029358,-0.193491,-0.219130,-0.420888,-0.341900,-0.305068,-10.036756,169.498868,16.366530,-10.082474,0.000000,0.000000,
162210978,169.057719,169.057719,35.666842,3,0.966675,-0.096436,0.236389,0.019104,-0.141883,-0.144752,-0.625607,-0.400131,-0.270956,-10.247058,169.574247,16.217207,-10.190421,0.000000,0.000000,
162221988,169.446787,169.446787,35.657785,3,0.966614,-0.100342,0.235718,0.008850,-0.196199,-0.220868,-0.500312,-0.388455,-0.308929,-10.098440,169.728324,16.091577,-10.130094,0.000000,0.000000,
162231446,169.657633,169.657633,35.657785,3,0.966370,-0.104309,0.235046,-0.001343,-0.060565,-0.143257,-0.543476,-0.291718,-0.247336,-10.211705,169.866818,15.986814,-10.183620,0.000000,0.000000,
162241181,169.657633,169.657633,35.657785,3,0.966064,-0.108276,0.234314,-0.011536,-0.158980,-0.093502,-0.545774,-0.391833,-0.195045,-10.184929,169.982811,15.863842,-10.184479,0.000000,0.000000,
162251927,170.077769,170.077769,35.657785,3,0.965576,-0.112183,0.233582,-0.021667,-0.233716,-0.140321,-0.440360,-0.408100,-0.206695,-10.039729,170.170491,15.766666,-10.089542,0.000000,0.000000,
162261384,170.498423,170.498423,35.657785,3,0.965027,-0.116150,0.232849,-0.031738,-0.199084,-0.054254,-0.566115,-0.436526,-0.149141,-10.184670,170.380544,15.708028,-10.151932,0.000000,0.000000,
162272238,170.167673,170.167673,35.653256,3,0.964355,-0.120117,0.232056,-0.041748,-0.232180,-0.198794,-0.401951,-0.392544,-0.246229,-9.994923,170.510590,15.575295,-10.048955,0.000000,0.000000,
162281434,170.708231,170.708231,35.657785,3,0.963562,-0.124023,0.231201,-0.051758,-0.200498,-0.035342,-0.605392,-0.457455,-0.139067,-10.223142,170.690393,15.504028,-10.163198,0.000000,0.000000,
162291149,171.008494,171.008494,35.653256,3,0.962646,-0.127991,0.230408,-0.061707,-0.262336,-0.199137,-0.422823,-0.441821,-0.239944,-9.996341,170.900079,15.443003,-10.053760,0.000000,0.000000,
162302252,171.518595,171.518595,35.648728,3,0.961670,-0.131897,0.229492,-0.071716,-0.286571,-0.142559,-0.551260,-0.519816,-0.200368,-10.115201,171.186731,15.400586,-10.094055,0.000000,0.000000,
162311625,170.498423,170.498423,35.657785,3,0.960571,-0.135803,0.228577,-0.081665,-0.097714,-0.072383,-0.473813,-0.319780,-0.155749,-10.146061,171.201717,15.226006,-10.128167,0.000000,0.000000,
162323457,171.038462,171.038462,35.662313,3,0.959290,-0.139648,0.227600,-0.091675,-0.234706,-0.259874,-0.482679,-0.492595,-0.182014,-10.034670,171.350576,15.088628,-10.066846,0.000000,0.000000,
162332363,171.428141,171.428141,35.653256,3,0.957947,-0.143494,0.226624,-0.101685,-0.177340,-0.072792,-0.506304,-0.399550,-0.143816,-10.136789,171.499090,15.007423,-10.112719,0.000000,0.000000,
162341633,171.758921,171.758921,35.657785,3,0.956543,-0.147339,0.225586,-0.111633,-0.233291,-0.278785,-0.443402,-0.450232,-0.304136,-9.995224,171.686426,14.944565,-10.035657,0.000000,0.000000,
162353326,171.848856,171.848856,35.653256,3,0.954956,-0.151184,0.224609,-0.121521,-0.213538,-0.090496,-0.418741,-0.398271,-0.120110,-10.036660,171.890912,14.845551,-10.036314,0.000000,0.000000,
162362050,171.968760,171.968760,35.657785,3,0.953308,-0.154968,0.223572,-0.131348,-0.175132,-0.239841,-0.460358,-0.409007,-0.274708,-10.040423,172.034627,14.767037,-10.039009,0.000000,0.000000,
162371679,172.389475,172.389475,35.657785,3,0.951538,-0.158752,0.222534,-0.141113,-0.300227,-0.217928,-0.384899,-0.486286,-0.194980,-9.935498,172.242764,14.711611,-9.971118,0.000000,0.000000,
162382557,173.108988,173.108988,35.653256,3,0.949646,-0.162476,0.221497,-0.150757,-0.256475,-0.122435,-0.529954,-0.496291,-0.144270,-10.107399,172.564352,14.699370,-10.060497,0.000000,0.000000,
162391987,172.809183,172.809183,35.657785,3,0.947693,-0.166199,0.220398,-0.160400,-0.228735,-0.216402,-0.303106,-0.390185,-0.181474,-9.892679,172.748376,14.634241,-9.950429,0.000000,0.000000,
162402635,173.108988,173.108988,35.653256,3,0.945618,-0.169922,0.219299,-0.169983,-0.305021,-0.092178,-0.511139,-0.520221,-0.087225,-10.086570,172.971145,14.567774,-10.039718,0.000000,0.000000,
162412081,173.440348,173.440348,35.657785,3,0.943420,-0.173584,0.218262,-0.179443,-0.192380,-0.139139,-0.379438,-0.386606,-0.141964,-9.995481,173.196164,14.527253,-10.010702,0.000000,0.000000,
162421638,173.229960,173.229960,35.657785,3,0.941162,-0.177246,0.217163,-0.188843,-0.304006,-0.091526,-0.481355,-0.509015,-0.071947,-10.062508,173.340863,14.434918,-10.044680,0.000000,0.000000,
162432546,173.019572,173.019572,35.657785,3,0.938782,-0.180847,0.216125,-0.198120,-0.176446,-0.032579,-0.475651,-0.383950,-0.063621,-10.124168,173.437571,14.288334,-10.096815,0.000000,0.000000,
162441867,173.050089,173.050089,35.666842,3,0.936340,-0.184509,0.215088,-0.207336,-0.301702,-0.179235,-0.423742,-0.514463,-0.116901,-9.980215,173.497779,14.150884,-10.020342,0.000000,0.000000,
162451742,173.650217,173.650217,35.657785,3,0.933777,-0.188110,0.214050,-0.216492,-0.157036,0.046483,-0.473236,-0.341161,-0.009049,-10.168122,173.665543,14.067733,-10.117265,0.000000,0.000000,
162462710,173.440348,173.440348,35.657785,3,0.931152,-0.191711,0.213013,-0.225525,-0.360044,-0.158838,-0.405482,-0.540492,-0.056432,-9.954826,173.777080,13.933028,-10.010727,0.000000,0.000000,
162472152,174.250406,174.250406,35.648728,3,0.928406,-0.195312,0.211975,-0.234558,-0.231221,-0.069351,-0.359415,-0.381976,-0.030007,-9.997443,173.996836,13.893177,-10.002012,0.000000,0.000000,
162482927,174.071024,174.071024,35.657785,3,0.925537,-0.198853,0.210999,-0.243469,-0.150246,-0.177083,-0.299529,-0.329419,-0.144575,-9.917969,174.159857,13.794725,-9.946890,0.000000,0.000000,
162492416,174.160441,174.160441,35.653256,3,0.922668,-0.202332,0.209961,-0.252319,-0.230766,-0.217705,-0.362674,-0.443699,-0.135559,-9.927287,174.290419,13.700599,-9.934033,0.000000,0.000000,
162502010,173.980540,173.980540,35.662313,3,0.919678,-0.205811,0.208923,-0.261169,-0.132897,-0.089435,-0.356465,-0.318161,-0.090118,-10.019220,174.363393,13.569128,-9.989906,0.000000,0.000000,
162513000,175.001047,175.001047,35.653256,3,0.916626,-0.209229,0.207825,-0.269958,-0.227937,-0.255528,-0.284119,-0.426322,-0.136773,-9.849756,174.631332,13.532971,-9.897984,0.000000,0.000000,
162522227,174.490793,174.490793,35.657785,3,0.913452,-0.212585,0.206726,-0.278809,-0.117488,-0.032761,-0.473621,-0.341556,-0.089599,-10.143632,174.729439,13.423052,-10.059097,0.000000,0.000000,
162532097,174.911631,174.911631,35.657785,3,0.910156,-0.215881,0.205688,-0.287598,-0.128901,-0.176058,-0.249212,-0.300812,-0.119763,-9.883977,174.895549,13.346155,-9.944240,0.000000,0.000000,
162542863,175.452433,175.452433,35.662313,3,0.906738,-0.219238,0.204590,-0.296387,-0.193886,-0.090556,-0.418064,-0.398899,-0.062406,-10.047906,175.142917,13.301087,-10.012229,0.000000,0.000000,
162552358,175.211497,175.211497,35.653256,3,0.903320,-0.222534,0.203552,-0.305054,-0.231281,-0.049570,-0.358981,-0.375113,0.016763,-10.016946,175.281601,13.213859,-10.015322,0.000000,0.000000,
162563133,175.121531,175.121531,35.657785,3,0.899780,-0.225830,0.202515,-0.313660,-0.173344,-0.159415,-0.399052,-0.405285,-0.106825,-10.005291,175.393422,13.087848,-10.008744,0.000000,0.000000,
162572556,175.031565,175.031565,35.662313,3,0.896179,-0.229065,0.201416,-0.322205,-0.193391,-0.030780,-0.396904,-0.359804,-0.006985,-10.064753,175.448526,12.951246,-10.045480,0.000000,0.000000,
162582224,175.241984,175.241984,35.662313,3,0.892517,-0.232361,0.200317,-0.330566,-0.228796,-0.196621,-0.302671,-0.415772,-0.065497,-9.894014,175.534624,12.832080,-9.946139,0.000000,0.000000,
162593281,175.121531,175.121531,35.657785,3,0.888794,-0.235596,0.199219,-0.338928,-0.174142,-0.120288,-0.418039,-0.396561,-0.070152,-10.034936,175.598534,12.674421,-10.004380,0.000000,0.000000,
162602498,175.752817,175.752817,35.657785,3,0.884949,-0.238770,0.198059,-0.347290,-0.230483,-0.088697,-0.339994,-0.376474,0.010767,-9.979423,175.743826,12.600273,-9.988011,0.000000,0.000000,
162612330,175.842264,175.842264,35.653256,3,0.881042,-0.242004,0.196838,-0.355652,-0.169899,-0.177023,-0.300206,-0.364149,-0.073343,-9.908763,175.885660,12.514023,-9.936034,0.000000,0.000000,
162623068,176.292612,176.292612,35.662313,3,0.877014,-0.245178,0.195679,-0.363892,-0.135908,0.007730,-0.433716,-0.314293,-0.016211,-10.128351,176.095640,12.451418,-10.062167,0.000000,0.000000,
162632553,176.262644,176.262644,35.653256,3,0.872986,-0.248291,0.194519,-0.372131,-0.167347,-0.234844,-0.232014,-0.362795,-0.075944,-9.824857,176.244583,12.377495,-9.906522,0.000000,0.000000,
162643441,176.172678,176.172678,35.657785,3,0.868835,-0.251404,0.193359,-0.380249,-0.076768,-0.051794,-0.432989,-0.313968,-0.092651,-10.103371,176.365275,12.259393,-10.035630,0.000000,0.000000,
162652858,176.382578,176.382578,35.657785,3,0.864563,-0.254517,0.192139,-0.388367,-0.040464,-0.176331,-0.246166,-0.267061,-0.138250,-9.884938,176.483531,12.168362,-9.936796,0.000000,0.000000,
162662433,177.223917,177.223917,35.657785,3,0.860291,-0.257629,0.190918,-0.396362,-0.035957,-0.100497,-0.393010,-0.295935,-0.136309,-10.052964,176.738160,12.156489,-10.012984,0.000000,0.000000,
162673440,177.434397,177.434397,35.657785,3,0.855896,-0.260620,0.189758,-0.404297,-0.150519,-0.088071,-0.297574,-0.303063,-0.005634,-9.964815,177.001733,12.125507,-9.981389,0.000000,0.000000,
162682867,176.172678,176.172678,35.657785,3,0.851501,-0.263672,0.188538,-0.412170,-0.074464,-0.139503,-0.375377,-0.335679,-0.119776,-10.001101,176.960321,11.935603,-9.994321,0.000000,0.000000,
162692618,176.923990,176.923990,35.662313,3,0.847046,-0.266602,0.187378,-0.419922,-0.044147,0.029410,-0.330956,-0.190111,-0.040921,-10.075864,177.069422,11.833216,-10.047803,0.000000,0.000000,
162703582,177.434397,177.434397,35.657785,3,0.842529,-0.269592,0.186157,-0.427612,-0.208770,-0.097344,-0.279966,-0.336489,0.042673,-9.944217,177.266916,11.765504,-9.979863,0.000000,0.000000,
162712902,177.344401,177.344401,35.662313,3,0.837952,-0.272522,0.184937,-0.435181,-0.112133,-0.009504,-0.314338,-0.241351,-0.002402,-10.026817,177.390645,11.680980,-10.010658,0.000000,0.000000,
162723697,177.434397,177.434397,35.657785,3,0.833313,-0.275452,0.183655,-0.442688,-0.087838,-0.085863,-0.186335,-0.210465,-0.013205,-9.883070,177.524365,11.579220,-9.926977,0.000000,0.000000,
162733025,177.734324,177.734324,35.653256,3,0.828613,-0.278442,0.182312,-0.450195,-0.191764,-0.118924,-0.359148,-0.379480,0.006041,-9.995612,177.671260,11.510185,-9.971991,0.000000,0.000000,
162742718,177.764841,177.764841,35.662313,3,0.823792,-0.281372,0.181030,-0.457581,-0.069539,-0.086792,-0.225370,-0.222927,-0.035907,-9.922109,177.799879,11.424649,-9.939275,0.000000,0.000000,
162754754,177.734324,177.734324,35.653256,3,0.818970,-0.284302,0.179688,-0.464905,-0.151721,-0.138391,-0.338372,-0.382017,0.090803,-9.966800,177.924380,11.297298,-9.957328,0.000000,0.000000,
162763582,177.524363,177.524363,35.653256,3,0.814087,-0.287231,0.178284,-0.472290,-0.091682,-0.048691,-0.294674,-0.247633,-0.023755,-9.992695,177.948744,11.162056,-9.980526,0.000000,0.000000,
162773030,177.854807,177.854807,35.657785,3,0.809082,-0.290039,0.176880,-0.479553,-0.184353,-0.213264,-0.152832,-0.324607,0.043300,-9.779994,178.036190,11.058930,-9.849004,0.000000,0.000000,
162784556,178.485758,178.485758,35.657785,3,0.804077,-0.292847,0.175415,-0.486755,-0.044460,-0.089708,-0.353419,-0.299677,0.005936,-10.007591,178.247192,10.994522,-9.953014,0.000000,0.000000,
162793584,178.455240,178.455240,35.648728,3,0.798950,-0.295654,0.173950,-0.493896,-0.147018,-0.234470,-0.211481,-0.345078,-0.018610,-9.807094,178.385037,10.930291,-9.857308,0.000000,0.000000,
162804243,178.064768,178.064768,35.657785,3,0.793823,-0.298401,0.172485,-0.500977,-0.111123,-0.117863,-0.296872,-0.294655,-0.031061,-9.953472,178.440990,10.787765,-9.920380,0.000000,0.000000,
162813428,178.606272,178.606272,35.662313,3,0.788635,-0.301147,0.171021,-0.507996,-0.091227,-0.197046,-0.297933,-0.345013,-0.070671,-9.903567,178.570609,10.715852,-9.909352,0.000000,0.000000,
162823106,178.064768,178.064768,35.657785,3,0.783447,-0.303833,0.169495,-0.514954,-0.107218,-0.174815,-0.188968,-0.273656,-0.012522,-9.838705,178.579207,10.563348,-9.863019,0.000000,0.000000,
162834035,179.026224,179.026224,35.662313,3,0.778137,-0.306519,0.168030,-0.521851,-0.093592,-0.089556,-0.355111,-0.311577,-0.050121,-10.016682,178.777732,10.504314,-9.963800,0.000000,0.000000,
162843507,178.906229,178.906229,35.657785,3,0.772766,-0.309204,0.166443,-0.528687,-0.106480,-0.194161,-0.169546,-0.274412,-0.003056,-9.806885,178.900858,10.426234,-9.860883,0.000000,0.000000,
162853081,179.026224,179.026224,35.662313,3,0.767334,-0.311829,0.164917,-0.535461,-0.014830,-0.139250,-0.353490,-0.312382,-0.127174,-9.973849,179.023677,10.344969,-9.934973,0.000000,0.000000,
162863909,179.206736,179.206736,35.653256,3,0.761902,-0.314514,0.163391,-0.542175,-0.049856,-0.096743,-0.224911,-0.222736,-0.045954,-9.909164,179.169379,10.258294,-9.918045,0.000000,0.000000,
162873279,179.326212,179.326212,35.657785,3,0.756348,-0.317078,0.161804,-0.548828,-0.131149,-0.217140,-0.319577,-0.394945,-0.020161,-9.911239,179.294427,10.183410,-9.913580,0.000000,0.000000,
162884096,179.657236,179.657236,35.662313,3,0.750732,-0.319702,0.160278,-0.555420,-0.043076,-0.098729,-0.313924,-0.270359,-0.072756,-9.971567,179.471926,10.116632,-9.951610,0.000000,0.000000,
162893461,179.357249,179.357249,35.666842,3,0.745117,-0.322327,0.158691,-0.561951,-0.148927,-0.275334,-0.271918,-0.415080,0.010118,-9.835597,179.544769,10.011374,-9.875521,0.000000,0.000000,
162903321,179.116740,179.116740,35.657785,3,0.739380,-0.324890,0.157043,-0.568420,-0.041722,-0.097860,-0.274212,-0.248568,-0.061346,-9.946569,179.562886,9.864741,-9.922121,0.000000,0.000000,
162914293,180.257761,180.257761,35.653256,3,0.733582,-0.327454,0.155457,-0.574829,-0.106793,-0.313279,-0.192009,-0.375432,0.001641,-9.746849,179.800665,9.836415,-9.807163,0.000000,0.000000,
162923744,179.988291,179.988291,35.666842,3,0.727722,-0.330078,0.153809,-0.581238,-0.051245,-0.196733,-0.276723,-0.326437,-0.061866,-9.880124,179.928326,9.764661,-9.855015,0.000000,0.000000,
162933290,180.799387,180.799387,35.657785,3,0.721863,-0.332642,0.152100,-0.587463,-0.168767,-0.324943,-0.283609,-0.457897,0.037816,-9.824135,180.184128,9.770132,-9.834758,0.000000,0.000000,
162944250,180.708323,180.708323,35.662313,3,0.715942,-0.335205,0.150391,-0.593689,-0.104762,-0.311975,-0.132441,-0.341067,0.038563,-9.704767,180.388777,9.722927,-9.749499,0.000000,0.000000,
162953698,180.498820,180.498820,35.662313,3,0.709961,-0.337769,0.148743,-0.599792,-0.088919,-0.175744,-0.228003,-0.292165,0.005965,-9.867991,180.500802,9.642324,-9.827214,0.000000,0.000000,
162964524,180.288828,180.288828,35.662313,3,0.703979,-0.340332,0.147034,-0.605774,-0.142623,-0.340656,-0.094735,-0.350175,0.092504,-9.675357,180.564928,9.513414,-9.727617,0.000000,0.000000,
162973720,180.288828,180.288828,35.662313,3,0.697937,-0.342896,0.145264,-0.611694,-0.111860,-0.098517,-0.316293,-0.294548,0.006783,-9.984261,180.600271,9.389600,-9.895943,0.000000,0.000000,
162983542,180.799387,180.799387,35.657785,3,0.691833,-0.345459,0.143555,-0.617554,-0.104086,-0.311541,-0.112585,-0.328922,0.060467,-9.700170,180.729301,9.316908,-9.767541,0.000000,0.000000,
162994438,180.889384,180.889384,35.653256,3,0.685730,-0.348022,0.141785,-0.623352,-0.051801,-0.236728,-0.297448,-0.372647,-0.040964,-9.868218,180.860203,9.227542,-9.833571,0.000000,0.000000,
163003808,180.618326,180.618326,35.666842,3,0.679504,-0.350586,0.140076,-0.629089,-0.009692,-0.155772,-0.205005,-0.247182,-0.054626,-9.850546,180.900936,9.107375,-9.844706,0.000000,0.000000,
163013563,180.919382,180.919382,35.662313,3,0.673279,-0.353149,0.138428,-0.634705,-0.040040,-0.314795,-0.249208,-0.403140,-0.025414,-9.779913,180.992768,9.014067,-9.802210,0.000000,0.000000,
163024589,181.129404,181.129404,35.662313,3,0.666931,-0.355713,0.136719,-0.640259,-0.011046,-0.156641,-0.244717,-0.269984,-0.056791,-9.873154,181.117140,8.920696,-9.848739,0.000000,0.000000,
163033812,181.098887,181.098887,35.653256,3,0.660583,-0.358337,0.135071,-0.645752,-0.036716,-0.292842,-0.149493,-0.323217,0.009108,-9.728234,181.195589,8.828922,-9.769703,0.000000,0.000000,
163044730,182.061136,182.061136,35.657785,3,0.654175,-0.360962,0.133362,-0.651184,0.069100,-0.215356,-0.203600,-0.286277,-0.110521,-9.783490,181.453499,8.820345,-9.778742,0.000000,0.000000,
163053956,181.730021,181.730021,35.653256,3,0.647705,-0.363525,0.131714,-0.656494,-0.008096,-0.234025,-0.167031,-0.284993,-0.017845,-9.767531,181.586248,8.762168,-9.771388,0.000000,0.000000,
163063748,181.640024,181.640024,35.657785,3,0.641235,-0.366089,0.130066,-0.661743,-0.007914,-0.293367,-0.168334,-0.328319,-0.003608,-9.730941,181.681647,8.672986,-9.744860,0.000000,0.000000,
163074490,181.850565,181.850565,35.657785,3,0.634644,-0.368652,0.128418,-0.666931,0.126310,-0.087833,-0.238457,-0.213859,-0.175207,-9.862501,181.805864,8.586200,-9.822016,0.000000,0.000000,
163084001,181.219431,181.219431,35.657785,3,0.628052,-0.371277,0.126709,-0.672058,0.114462,-0.310687,-0.035643,-0.246165,-0.062205,-9.585699,181.777294,8.427747,-9.667026,0.000000,0.000000,
163093699,181.971659,181.971659,35.662313,3,0.621399,-0.373901,0.125061,-0.677063,0.145781,-0.028552,-0.236477,-0.170838,-0.197587,-9.889612,181.894928,8.353916,-9.813012,0.000000,0.000000,
163104760,181.219431,181.219431,35.657785,3,0.614746,-0.376465,0.123352,-0.682007,0.111729,-0.193524,-0.102532,-0.209042,-0.096300,-9.699702,181.860255,8.170214,-9.738698,0.000000,0.000000,
163114052,182.271708,182.271708,35.657785,3,0.608032,-0.379150,0.121643,-0.686890,0.125386,-0.118156,-0.268893,-0.266407,-0.170634,-9.855776,182.012800,8.126075,-9.815484,0.000000,0.000000,
163124978,181.460520,181.460520,35.666842,3,0.601257,-0.381775,0.119934,-0.691650,0.091278,-0.154337,-0.122196,-0.197528,-0.082188,-9.746928,181.997568,7.956792,-9.770523,0.000000,0.000000,
163134295,181.760569,181.760569,35.662313,3,0.594482,-0.384399,0.118225,-0.696289,0.109638,-0.175047,-0.161666,-0.240198,-0.099456,-9.756243,182.026887,7.838498,-9.761158,0.000000,0.000000,
163144011,182.512308,182.512308,35.666842,3,0.587708,-0.387085,0.116516,-0.700806,0.048316,-0.067376,-0.220874,-0.202072,-0.094773,-9.887468,182.193434,7.797692,-9.843999,0.000000,0.000000,
163154778,182.481241,182.481241,35.657785,3,0.580933,-0.389771,0.114807,-0.705261,0.031704,-0.174370,-0.144517,-0.227863,-0.016613,-9.770217,182.330717,7.725063,-9.795607,0.000000,0.000000,
163164261,181.971659,181.971659,35.662313,3,0.574097,-0.392456,0.113037,-0.709656,0.070888,-0.134930,-0.142294,-0.196532,-0.069303,-9.779702,182.336297,7.591045,-9.785177,0.000000,0.000000,
163174046,182.061136,182.061136,35.657785,3,0.567261,-0.395203,0.111267,-0.713867,0.032816,-0.094379,-0.103067,-0.144603,-0.030966,-9.797340,182.358605,7.463901,-9.793155,0.000000,0.000000,
163186044,182.091685,182.091685,35.666842,3,0.560486,-0.397949,0.109436,-0.718018,-0.009753,-0.135991,-0.204570,-0.241337,0.111197,-9.857264,182.397430,7.315452,-9.835203,0.000000,0.000000,
163194908,182.932932,182.932932,35.666842,3,0.553711,-0.400696,0.107605,-0.721985,0.073535,-0.113412,-0.062436,-0.133181,-0.044628,-9.739790,182.562274,7.292147,-9.772622,0.000000,0.000000,
163204383,182.691813,182.691813,35.657785,3,0.546875,-0.403503,0.105652,-0.725952,0.089985,-0.174987,-0.162343,-0.242817,-0.059216,-9.761346,182.655180,7.214484,-9.765226,0.000000,0.000000,
163215947,182.812388,182.812388,35.662313,3,0.539978,-0.406250,0.103699,-0.729797,0.128159,-0.027188,-0.177586,-0.159447,-0.028300,-9.834942,182.767398,7.118601,-9.810950,0.000000,0.000000,
163224806,182.812388,182.812388,35.662313,3,0.533142,-0.409058,0.101685,-0.733582,0.128553,-0.155762,-0.180410,-0.254670,-0.096230,-9.760438,182.838510,7.037415,-9.777821,0.000000,0.000000,
163235351,183.112986,183.112986,35.657785,3,0.526245,-0.411804,0.099609,-0.737244,0.177351,-0.047120,-0.176328,-0.174550,-0.186059,-9.795494,182.963572,6.965329,-9.789411,0.000000,0.000000,
163244636,183.022959,183.022959,35.662313,3,0.519348,-0.414612,0.097534,-0.740845,0.181008,-0.133960,-0.079003,-0.164433,-0.115546,-9.680801,183.038951,6.882297,-9.718177,0.000000,0.000000,
163254284,183.112986,183.112986,35.657785,3,0.512451,-0.417358,0.095459,-0.744385,0.198014,-0.155540,-0.158185,-0.250091,-0.140045,-9.706794,183.118753,6.797022,-9.710711,0.000000,0.000000,
163265297,182.901865,182.901865,35.657785,3,0.505493,-0.420044,0.093262,-0.747864,0.148266,-0.175603,-0.180168,-0.268421,-0.094962,-9.733163,183.152416,6.665433,-9.725437,0.000000,0.000000,
163274758,183.112986,183.112986,35.657785,3,0.498474,-0.422729,0.091064,-0.751343,0.171798,-0.113715,-0.059051,-0.142489,-0.105977,-9.673090,183.207664,6.569404,-9.691105,0.000000,0.000000,
163284456,183.533640,183.533640,35.657785,3,0.491516,-0.425415,0.088806,-0.754639,0.165373,-0.008832,-0.235366,-0.205998,-0.194362,-9.851205,183.331910,6.510882,-9.796108,0.000000,0.000000,
163295155,183.233011,183.233011,35.662313,3,0.484558,-0.428101,0.086487,-0.757935,0.073323,-0.044180,-0.060915,-0.084862,-0.051734,-9.772043,183.382498,6.395148,-9.780325,0.000000,0.000000,
163304616,183.112986,183.112986,35.657785,3,0.477539,-0.430786,0.084106,-0.761108,0.109365,-0.086035,-0.159710,-0.187742,-0.086952,-9.788453,183.392105,6.271646,-9.785657,0.000000,0.000000,
163315238,183.233011,183.233011,35.662313,3,0.470520,-0.433472,0.081665,-0.764221,0.151994,-0.064203,-0.058642,-0.115752,-0.102073,-9.714401,183.428390,6.150407,-9.738923,0.000000,0.000000,
163324658,183.233011,183.233011,35.662313,3,0.463562,-0.436218,0.079224,-0.767212,0.108042,-0.096794,-0.199640,-0.235014,-0.084881,-9.805638,183.449308,6.035600,-9.782680,0.000000,0.000000,
163334406,183.533640,183.533640,35.657785,3,0.456543,-0.438965,0.076721,-0.770020,0.217949,-0.026592,-0.134828,-0.166394,-0.186783,-9.734048,183.523464,5.950271,-9.750784,0.000000,0.000000,
163345484,183.864817,183.864817,35.662313,3,0.449524,-0.441772,0.074158,-0.772827,0.180513,-0.193737,-0.100163,-0.239563,-0.048528,-9.649497,183.652708,5.881873,-9.684351,0.000000,0.000000,
163354940,183.654215,183.654215,35.662313,3,0.442505,-0.444519,0.071533,-0.775513,0.274695,0.031264,-0.191062,-0.186911,-0.275078,-9.759804,183.708169,5.789728,-9.733838,0.000000,0.000000,
163364624,183.743723,183.743723,35.657785,3,0.435425,-0.447327,0.068787,-0.778198,0.181685,-0.133526,-0.059147,-0.162154,-0.074231,-9.647880,183.770443,5.700353,-9.677461,0.000000,0.000000,
163375445,184.074381,184.074381,35.662313,3,0.428345,-0.450073,0.065979,-0.780762,0.167959,0.032467,-0.155072,-0.132840,-0.188762,-9.794108,183.888459,5.628837,-9.753965,0.000000,0.000000,
163384795,183.833750,183.833750,35.653256,3,0.421265,-0.452759,0.063110,-0.783264,0.150024,-0.085287,-0.118644,-0.173042,-0.087034,-9.728345,183.930420,5.531590,-9.737162,0.000000,0.000000,
163395681,184.074381,184.074381,35.662313,3,0.414246,-0.455444,0.060181,-0.785706,0.173278,-0.043397,-0.007891,-0.075455,-0.095978,-9.661005,184.017028,5.442728,-9.687212,0.000000,0.000000,
163405004,183.654215,183.654215,35.662313,3,0.407227,-0.458130,0.057251,-0.788025,0.126562,0.051065,-0.215560,-0.166066,-0.180733,-9.860748,183.999384,5.308853,-9.801030,0.000000,0.000000,
163414865,184.706217,184.706217,35.662313,3,0.400269,-0.460754,0.054260,-0.790283,0.093809,0.015753,-0.029151,-0.039538,-0.079839,-9.755597,184.183566,5.293012,-9.771229,0.000000,0.000000,
163425820,184.074381,184.074381,35.662313,3,0.393311,-0.463440,0.051270,-0.792419,0.125269,0.030416,-0.255706,-0.213871,-0.180227,-9.870654,184.220507,5.172533,-9.836439,0.000000,0.000000,
163435280,184.164408,184.164408,35.657785,3,0.386292,-0.466064,0.048096,-0.794495,0.096173,-0.091736,0.028028,-0.058242,0.003893,-9.676490,184.258506,5.074573,-9.731534,0.000000,0.000000,
163444836,184.675150,184.675150,35.653256,3,0.379272,-0.468750,0.044922,-0.796509,0.146154,0.070785,-0.214448,-0.168683,-0.202868,-9.838114,184.384532,5.028072,-9.801435,0.000000,0.000000,
163455590,184.916331,184.916331,35.662313,3,0.372253,-0.471375,0.041687,-0.798401,0.181170,0.034609,-0.055454,-0.076199,-0.155416,-9.711093,184.537610,4.983745,-9.742181,0.000000,0.000000,
163465069,184.284983,184.284983,35.662313,3,0.365356,-0.474060,0.038391,-0.800232,0.129573,-0.046100,-0.138308,-0.176704,-0.082632,-9.761650,184.537108,4.862202,-9.754951,0.000000,0.000000,
163474934,184.616190,184.616190,35.666842,3,0.358398,-0.476624,0.035034,-0.801941,0.178341,0.072432,-0.134009,-0.114066,-0.197514,-9.771339,184.599399,4.774787,-9.765699,0.000000,0.000000,
163485977,185.126963,185.126963,35.662313,3,0.351501,-0.479248,0.031616,-0.803589,0.151994,-0.064203,-0.058642,-0.126628,-0.059914,-9.693313,184.750339,4.727497,-9.718221,0.000000,0.000000,
163495349,185.427103,185.427103,35.657785,3,0.344604,-0.481750,0.028137,-0.805237,0.177725,0.052217,-0.154299,-0.143053,-0.189296,-9.763309,184.920979,4.714217,-9.747790,0.000000,0.000000,
163506133,184.916331,184.916331,35.662313,3,0.337708,-0.484253,0.024658,-0.806763,0.151933,-0.044422,-0.058207,-0.117753,-0.066674,-9.692550,184.970385,4.609143,-9.711560,0.000000,0.000000,
163515604,185.067454,185.067454,35.675899,3,0.330933,-0.486755,0.021118,-0.808167,0.131725,-0.084357,-0.079609,-0.151157,-0.031499,-9.708426,185.031786,4.528415,-9.709504,0.000000,0.000000,
163525190,184.916331,184.916331,35.662313,3,0.324219,-0.489197,0.017517,-0.809448,0.149539,0.072958,-0.115168,-0.103396,-0.165586,-9.763954,185.053132,4.421637,-9.745217,0.000000,0.000000,
163536202,185.096415,185.096415,35.653256,3,0.317566,-0.491638,0.013916,-0.810730,0.184731,-0.131571,0.030205,-0.099547,0.018980,-9.598703,185.109352,4.320767,-9.649123,0.000000,0.000000,
163545442,184.706217,184.706217,35.662313,3,0.310974,-0.494080,0.010254,-0.811829,0.166423,0.090940,-0.193481,-0.163957,-0.210192,-9.793341,185.073352,4.183671,-9.743713,0.000000,0.000000,
163555289,185.337076,185.337076,35.662313,3,0.304382,-0.496460,0.006531,-0.812927,0.114937,-0.022999,0.010369,-0.044254,-0.032231,-9.693330,185.163440,4.118162,-9.710667,0.000000,0.000000,
163566000,185.427103,185.427103,35.657785,3,0.297913,-0.498779,0.002747,-0.813904,0.175755,0.031133,-0.214302,-0.216956,-0.168188,-9.770085,185.256354,4.043402,-9.749636,0.000000,0.000000,
163575503,185.247538,185.247538,35.666842,3,0.291443,-0.501099,-0.001038,-0.814819,0.171222,0.074201,-0.054923,-0.069754,-0.153867,-9.708820,185.292691,3.950138,-9.722867,0.000000,0.000000,
163586299,185.757822,185.757822,35.662313,3,0.285034,-0.503418,-0.004883,-0.815674,0.180210,-0.094834,-0.097990,-0.182690,-0.025987,-9.674904,185.421885,3.898528,-9.691407,0.000000,0.000000,
163595754,186.058512,186.058512,35.657785,3,0.278625,-0.505676,-0.008728,-0.816467,0.218939,0.092961,-0.092509,-0.108832,-0.202955,-9.689815,185.577549,3.880344,-9.690360,0.000000,0.000000,
163605412,185.337076,185.337076,35.662313,3,0.272217,-0.507874,-0.012695,-0.817200,0.171647,-0.064263,-0.057965,-0.137231,-0.031867,-9.663808,185.569565,3.759620,-9.672946,0.000000,0.000000,
163617397,185.307047,185.307047,35.653256,3,0.265869,-0.510071,-0.016602,-0.817871,0.257749,0.033063,-0.112314,-0.162694,-0.027723,-9.641614,185.564745,3.614328,-9.652398,0.000000,0.000000,
163626251,185.636698,185.636698,35.657785,3,0.259521,-0.512207,-0.020630,-0.818420,0.169990,0.033770,-0.095504,-0.125630,-0.123257,-9.706371,185.609850,3.536797,-9.687797,0.000000,0.000000,
163635728,185.636698,185.636698,35.657785,3,0.253235,-0.514343,-0.024658,-0.818970,0.220041,-0.045069,-0.075694,-0.158305,-0.061613,-9.635797,185.647963,3.448552,-9.653692,0.000000,0.000000,
163647446,185.636698,185.636698,35.657785,3,0.247009,-0.516418,-0.028748,-0.819397,0.315172,0.091354,-0.148692,-0.186565,-0.103925,-9.619020,185.685604,3.334535,-9.630952,0.000000,0.000000,
163656272,185.878428,185.878428,35.666842,3,0.240845,-0.518494,-0.032837,-0.819763,0.302526,-0.092373,0.035135,-0.114982,-0.015730,-9.506813,185.750801,3.273255,-9.549532,0.000000,0.000000,
163666788,185.847880,185.847880,35.657785,3,0.234680,-0.520569,-0.036926,-0.820129,0.334087,0.110639,-0.167437,-0.206827,-0.262780,-9.606918,185.802869,3.183297,-9.587169,0.000000,0.000000,
163676028,185.968485,185.968485,35.662313,3,0.228577,-0.522583,-0.041138,-0.820374,0.280691,-0.044165,-0.024024,-0.131274,-0.059054,-9.558492,185.862884,3.114013,-9.568360,0.000000,0.000000,
163685623,186.389780,186.389780,35.662313,3,0.222473,-0.524536,-0.045410,-0.820557,0.296135,0.111630,-0.129079,-0.164668,-0.226857,-9.606680,185.990898,3.081422,-9.593491,0.000000,0.000000,
163696667,186.689982,186.689982,35.657785,3,0.216431,-0.526489,-0.049622,-0.820679,0.181473,-0.064294,-0.057627,-0.141345,-0.010285,-9.655804,186.155196,3.053376,-9.634357,0.000000,0.000000,
163706082,185.968485,185.968485,35.662313,3,0.210449,-0.528442,-0.053955,-0.820740,0.255537,0.091101,-0.170579,-0.198754,-0.208628,-9.656724,186.148554,2.941007,-9.649028,0.000000,0.000000,
163715806,185.847880,185.847880,35.657785,3,0.204468,-0.530334,-0.058289,-0.820679,0.277806,0.122450,-0.089826,-0.126479,-0.206649,-9.608689,186.120432,2.813471,-9.622572,0.000000,0.000000,
163726756,185.667765,185.667765,35.666842,3,0.198669,-0.532227,-0.062561,-0.820557,0.240986,-0.024480,-0.034871,-0.127839,-0.045927,-9.591018,186.065915,2.657321,-9.601879,0.000000,0.000000,
163736195,185.878428,185.878428,35.666842,3,0.192871,-0.534119,-0.066895,-0.820374,0.280110,0.034740,-0.032214,-0.115001,-0.107545,-9.562156,186.055463,2.545501,-9.575827,0.000000,0.000000,
163746879,185.548228,185.548228,35.662313,3,0.187134,-0.536011,-0.071289,-0.820129,0.281125,0.035392,-0.002430,-0.087932,-0.097748,-9.552063,185.987124,2.385784,-9.560243,0.000000,0.000000,
163756218,185.847880,185.847880,35.657785,3,0.181396,-0.537903,-0.075745,-0.819763,0.259285,-0.025410,-0.073906,-0.162279,-0.049500,-9.587770,185.982911,2.280203,-9.578298,0.000000,0.000000,
163765905,185.999003,185.999003,35.671370,3,0.175720,-0.539795,-0.080139,-0.819336,0.279928,0.094082,-0.030910,-0.087143,-0.149305,-9.565958,186.007562,2.189363,-9.570205,0.000000,0.000000,
163776915,185.757822,185.757822,35.662313,3,0.170105,-0.541687,-0.084656,-0.818787,0.276109,0.012353,-0.151784,-0.227296,-0.104973,-9.612046,185.984324,2.055358,-9.597648,0.000000,0.000000,
163786427,186.569376,186.569376,35.653256,3,0.164490,-0.543579,-0.089233,-0.818237,0.336855,0.092597,-0.088447,-0.158221,-0.169853,-9.531642,186.113019,2.032114,-9.554354,0.000000,0.000000,
163796164,186.689982,186.689982,35.657785,3,0.158875,-0.545471,-0.093872,-0.817566,0.261654,-0.023889,-0.004410,-0.103000,-0.014984,-9.555042,186.240352,2.004799,-9.554803,0.000000,0.000000,
163806891,186.569376,186.569376,35.653256,3,0.153320,-0.547363,-0.098511,-0.816833,0.315970,0.052227,-0.129705,-0.209209,-0.129874,-9.559724,186.322915,1.939546,-9.558029,0.000000,0.000000,
163816339,186.599924,186.599924,35.662313,3,0.147827,-0.549194,-0.103149,-0.816040,0.181473,-0.064294,-0.057627,-0.134415,0.009489,-9.651514,186.392677,1.880175,-9.619342,0.000000,0.000000,
163826058,185.847880,185.847880,35.657785,3,0.142334,-0.551025,-0.107849,-0.815125,0.277584,-0.026339,-0.112941,-0.201071,-0.049025,-9.588557,186.308538,1.725102,-9.599153,0.000000,0.000000,
163837115,186.389780,186.389780,35.662313,3,0.136902,-0.552856,-0.112671,-0.814209,0.219485,-0.085065,-0.096419,-0.186372,0.022259,-9.637953,186.342235,1.627737,-9.624601,0.000000,0.000000,
163846609,187.020731,187.020731,35.662313,3,0.131409,-0.554626,-0.117493,-0.813171,0.201681,-0.024359,-0.036225,-0.110939,-0.010401,-9.622562,186.484342,1.614693,-9.623260,0.000000,0.000000,
163857392,186.389780,186.389780,35.662313,3,0.126038,-0.556458,-0.122314,-0.812134,0.196145,0.011726,-0.194204,-0.234175,-0.093028,-9.685673,186.483474,1.499487,-9.664195,0.000000,0.000000,
163866688,186.058512,186.058512,35.657785,3,0.120667,-0.558228,-0.127258,-0.810974,0.201898,0.015420,-0.025428,-0.082608,-0.034704,-9.613665,186.417402,1.360993,-9.631056,0.000000,0.000000,
163876372,186.479319,186.479319,35.657785,3,0.115295,-0.559998,-0.132202,-0.809692,0.175755,0.031133,-0.214302,-0.235665,-0.111616,-9.707934,186.441712,1.274028,-9.681478,0.000000,0.000000,
163887082,187.020731,187.020731,35.662313,3,0.109985,-0.561768,-0.137207,-0.808411,0.258244,0.092839,-0.091155,-0.130671,-0.125382,-9.579908,186.563218,1.236912,-9.614859,0.000000,0.000000,
163896461,186.599924,186.599924,35.662313,3,0.104736,-0.563538,-0.142151,-0.807007,0.218687,-0.045938,-0.115406,-0.189829,-0.000547,-9.641528,186.581266,1.150688,-9.632351,0.000000,0.000000,
163906229,186.599924,186.599924,35.662313,3,0.099609,-0.565308,-0.147156,-0.805542,0.333592,0.050863,-0.188596,-0.261869,-0.110455,-9.537447,186.595546,1.059638,-9.570106,0.000000,0.000000,
163917022,186.268656,186.268656,35.657785,3,0.094482,-0.567017,-0.152161,-0.804016,0.236986,-0.046868,-0.154441,-0.223856,-0.011187,-9.632015,186.545223,0.918791,-9.610711,0.000000,0.000000,
163926605,186.689982,186.689982,35.657785,3,0.089355,-0.568726,-0.157166,-0.802368,0.315111,0.111134,-0.148258,-0.195211,-0.148564,-9.528824,186.580700,0.844113,-9.557004,0.000000,0.000000,
163939144,186.268656,186.268656,35.657785,3,0.084229,-0.570435,-0.162231,-0.800720,0.260821,-0.083883,-0.035498,-0.118939,0.222972,-9.575982,186.532028,0.688575,-9.569452,0.000000,0.000000,
163947726,187.110789,187.110789,35.657785,3,0.079102,-0.572083,-0.167358,-0.799072,0.257133,0.012848,-0.132605,-0.190979,-0.044050,-9.593108,186.646137,0.675122,-9.584964,0.000000,0.000000,
163956956,187.020731,187.020731,35.662313,3,0.074036,-0.573669,-0.172485,-0.797302,0.169555,-0.045786,-0.117099,-0.165916,0.013243,-9.684789,186.722092,0.628816,-9.650435,0.000000,0.000000,
