Code compiled on Mar  8 2026 at 08:43:54
﻿Simulation Mode (T/F),F
Airbrakes Enabled (T/F),T
Log File Name,FLT
Sim File Name (if applicable),Sim
Burnout Mass (kg),0.58
Air Density (kg/m^3),1.266
Rocket CD,0.525
Airbrake CD,0.8
Rocket Area (m^2),0.00243
Kalman Model Y STD,0.2
Kalman Model V STD,0.5
Kalman Model A STD,0.5
Kalman Measurement Y STD,6
Kalman Measurement A STD,0.5
Target Apogee (m),228.6
Launch Acceleration Threshold (m/s^2),40
Coast Lockout (s),1.5
KP (1/s),0.24
Altimeter Lockout (s),30
Control Max Velocity (dep/s),2

Calibration point: 233.420515
Time (us),Altitude AGL (m),Temperature (deg C),Mode,IMU Quat W,IMU Quat X,IMU Quat Y,IMU Quat Z,IMU Raw Local Acceleration X,IMU Raw Local Acceleration Y,IMU Raw Local Acceleration Z,IMU Global Acceleration x,IMU Global Acceleration y,IMU Global Acceleration z,State Estimation y,State Estimation v,State Estimation a,Commanded servo deployment,Real servo deployment,
160353224,0.318376,12.185234,1,0.849548,0.012939,0.014343,0.527100,-0.000367,0.513857,20.502102,0.313674,0.084044,10.708748,0.187290,0.183693,7.879892,0.000000,0.000000,
160360877,-0.141875,12.189881,2,0.849548,0.012939,0.014343,0.527100,-3.195723,3.631496,81.450090,-1.579074,-1.813050,71.761218,0.164612,0.711044,54.644268,0.000000,0.000000,
160383564,0.318376,12.185234,2,0.845825,0.013123,0.014832,0.533081,2.120569,3.816840,83.392393,0.726980,3.019962,73.651037,0.212743,2.323575,68.558188,0.000000,0.000000,
160391971,0.046861,12.180587,2,0.845825,0.013123,0.014832,0.533081,0.468326,2.038568,94.480437,2.042150,0.673519,84.681349,0.222289,3.059148,80.361161,0.000000,0.000000,
160401480,0.051485,12.171294,2,0.842529,0.013550,0.013916,0.538269,-3.191520,4.267923,93.626098,-1.674825,-1.844471,83.948657,0.240462,3.837931,82.987391,0.000000,0.000000,
160410389,0.878435,12.166648,2,0.840149,0.013123,0.013245,0.542053,-0.923794,1.914423,95.032490,1.324159,-0.784802,85.237410,0.333617,4.676234,84.634519,0.000000,0.000000,
160419263,0.967409,12.171294,2,0.837524,0.012451,0.012756,0.546143,4.375189,-12.389966,93.330547,16.354395,-1.642363,83.000061,0.433333,5.489717,83.438013,0.000000,0.000000,
160429389,0.873796,12.175941,2,0.833435,0.011841,0.011963,0.552368,1.300584,-1.938377,94.157578,5.371960,-0.178063,84.226753,0.531463,6.395440,84.015411,0.000000,0.000000,
160438553,0.323519,12.175941,2,0.828491,0.011475,0.011047,0.559814,2.341701,0.820443,96.640178,3.114700,1.836265,86.799392,0.575772,7.166215,86.053426,0.000000,0.000000,
160448132,1.239473,12.175941,2,0.824158,0.011719,0.010925,0.566162,-1.792577,2.597293,97.115804,-0.031523,-1.422076,87.351761,0.705964,8.082593,87.003873,0.000000,0.000000,
160458929,0.967409,12.171294,2,0.819519,0.012024,0.011658,0.572815,-0.800344,3.225978,93.308699,-0.239280,-0.237014,83.561936,0.820679,9.017347,84.484200,0.000000,0.000000,
160468388,1.056886,12.175941,2,0.813599,0.012451,0.012146,0.581116,0.002918,-3.965382,91.908130,6.888511,-1.847410,81.910503,0.930059,9.820014,82.600123,0.000000,0.000000,
160478114,1.610811,12.166648,2,0.807312,0.012878,0.012329,0.589905,-3.979598,-1.006956,92.063608,2.973506,-4.676646,82.182276,1.088531,10.701273,82.294238,0.000000,0.000000,
160489200,1.245134,12.166648,2,0.803589,0.012146,0.011658,0.594971,-1.624295,7.273666,90.942744,-4.416456,0.054809,81.335735,1.225750,11.622137,81.592566,0.000000,0.000000,
160498705,1.516680,12.171294,2,0.802124,0.011475,0.011658,0.596985,-3.107093,0.503211,95.124814,1.699632,-3.265806,85.300740,1.365540,12.469430,84.307137,0.000000,0.000000,
160508387,1.699785,12.171294,2,0.801636,0.012451,0.011780,0.597595,-0.959620,4.046104,96.779940,-0.887612,-0.341936,87.059056,1.519515,13.352820,86.321682,0.000000,0.000000,
160519112,1.977525,12.166648,2,0.803223,0.012390,0.011353,0.595459,0.172548,2.613804,96.286142,0.718743,0.308135,86.513258,1.707581,14.335803,86.461926,0.000000,0.000000,
160528693,1.977525,12.166648,2,0.804565,0.011841,0.010803,0.593628,-0.284623,12.079908,94.396481,-8.655136,2.701225,84.929080,1.872291,15.181872,85.339805,0.000000,0.000000,
160538525,1.977525,12.166648,2,0.804626,0.012085,0.010742,0.593567,-4.732658,9.790143,95.401213,-7.735938,-2.278627,85.875573,2.034889,16.038895,85.732014,0.000000,0.000000,
160549622,2.527376,12.166648,2,0.804382,0.012085,0.010681,0.593872,-3.738796,5.396396,95.633880,-3.246090,-2.636611,85.963164,2.261110,17.052057,85.901227,0.000000,0.000000,
160559095,3.260393,12.166648,2,0.804993,0.011719,0.010437,0.593079,3.600941,-1.616286,96.040410,5.550070,2.331203,86.127545,2.513706,17.989386,86.066903,0.000000,0.000000,
160568813,2.982607,12.171294,2,0.805969,0.010864,0.009338,0.591736,1.645194,7.701209,95.020997,-4.199835,3.260438,85.394341,2.733400,18.875839,85.574553,0.000000,0.000000,
160579677,3.076738,12.166648,2,0.807251,0.010742,0.007874,0.590027,3.386094,3.124358,96.280974,0.495555,3.399161,86.526463,2.973547,19.856875,86.271400,0.000000,0.000000,
160589003,3.165743,12.171294,2,0.809875,0.011536,0.007751,0.586426,-1.370245,4.285430,96.730318,-1.973451,-0.883175,87.006934,3.179308,20.691805,86.809848,0.000000,0.000000,
160598875,4.270738,12.162001,2,0.812073,0.011353,0.008179,0.583374,-1.233150,4.279770,96.481750,-1.892513,-0.660228,86.760053,3.482883,21.679426,86.773395,0.000000,0.000000,
160609937,4.449251,12.171294,2,0.813293,0.011230,0.008362,0.581665,-0.568409,2.083982,96.748087,0.418930,-0.694352,86.965083,3.812314,22.757204,86.913721,0.000000,0.000000,
160619425,5.370714,12.162001,2,0.813660,0.011230,0.008118,0.581238,-2.080608,4.009342,96.775752,-1.926295,-1.525297,87.046297,4.168155,23.771367,87.010774,0.000000,0.000000,
160629125,4.726045,12.166648,2,0.812073,0.011230,0.007751,0.583374,-2.190598,3.325897,96.262747,-1.382202,-1.892723,86.513072,4.451408,24.677486,86.646431,0.000000,0.000000,
160640054,5.276033,12.166648,2,0.810242,0.011536,0.006592,0.585938,-0.667983,2.872865,97.310873,-0.587756,-0.792025,87.547317,4.798276,25.732565,87.305925,0.000000,0.000000,
160649409,5.820925,12.175941,2,0.808594,0.012451,0.005188,0.588196,-1.304315,3.435934,97.312455,-1.434267,-1.545543,87.555669,5.132033,26.674740,87.488750,0.000000,0.000000,
160659245,6.281435,12.171294,2,0.807007,0.013855,0.003418,0.590393,-1.911746,2.882731,96.350366,-1.224329,-2.706961,86.562800,5.498665,27.663437,86.810908,0.000000,0.000000,
160670091,6.098772,12.171294,2,0.805298,0.015869,0.001343,0.592590,-1.572447,2.703543,96.200936,-1.035900,-2.998215,86.394614,5.856071,28.672034,86.506159,0.000000,0.000000,
160679709,6.926210,12.166648,2,0.803589,0.018494,-0.001038,0.594910,-1.866631,3.230293,95.227350,-1.705586,-3.786589,85.413426,6.229046,29.621382,85.706223,0.000000,0.000000,
160690487,7.382143,12.171294,2,0.801819,0.021667,-0.003723,0.597107,-2.266223,3.093371,95.225017,-1.723330,-5.013156,85.355330,6.653801,30.678753,85.449351,0.000000,0.000000,
160699988,7.475801,12.166648,2,0.800049,0.025452,-0.006714,0.599365,-2.054665,2.950015,95.433958,-1.521108,-5.793424,85.509959,7.020819,31.589552,85.493719,0.000000,0.000000,
160709621,8.213793,12.157354,2,0.798157,0.029724,-0.009888,0.601624,-2.297817,3.069113,94.427905,-1.703114,-6.960186,84.434576,7.432864,32.544699,84.718373,0.000000,0.000000,
160720685,8.852495,12.162001,2,0.796143,0.034485,-0.013306,0.603943,-2.494898,3.074702,94.407330,-1.700322,-8.268130,84.315603,7.921761,33.645682,84.423525,0.000000,0.000000,
160730056,9.036760,12.162001,2,0.794067,0.039551,-0.016907,0.606323,-2.695200,2.747854,93.527889,-1.390936,-9.660198,83.290639,8.337826,34.558694,83.594195,0.000000,0.000000,
160739892,9.769716,12.162001,2,0.791748,0.044983,-0.020630,0.608826,-2.865327,2.810256,93.238862,-1.392076,-11.018167,82.863885,8.806315,35.543157,83.059571,0.000000,0.000000,
160750594,10.499117,12.171294,2,0.789185,0.050720,-0.024414,0.611572,-3.204552,2.916169,92.800128,-1.445079,-12.559850,82.234688,9.338730,36.623091,82.455715,0.000000,0.000000,
160760210,10.865633,12.171294,2,0.786377,0.056763,-0.028198,0.614502,-3.409636,2.820891,92.470066,-1.217593,-14.062765,81.694614,9.827566,37.589367,81.898551,0.000000,0.000000,
160769964,11.693453,12.166648,2,0.783447,0.062927,-0.032043,0.617432,-3.604860,2.651920,91.531952,-0.915682,-15.505864,80.517709,10.360226,38.594594,80.887705,0.000000,0.000000,
160781006,12.882768,12.171294,2,0.780396,0.069214,-0.035828,0.620422,-3.851096,2.575223,90.843295,-0.663837,-16.994132,79.558388,11.010689,39.769734,79.914577,0.000000,0.000000,
160790347,12.610399,12.166648,2,0.777039,0.075562,-0.039490,0.623657,-4.090962,2.596083,89.966073,-0.476368,-18.382604,78.397401,11.524757,40.690701,78.803927,0.000000,0.000000,
160800221,14.077379,12.166648,2,0.773499,0.081909,-0.042969,0.627014,-4.337884,2.559953,89.417136,-0.173197,-19.804850,77.543556,12.152097,41.756052,77.881272,0.000000,0.000000,
160810992,14.905443,12.162001,2,0.769897,0.088318,-0.046326,0.630371,-4.683234,2.589784,89.416125,0.101384,-21.397184,77.178051,12.845707,42.909891,77.366479,0.000000,0.000000,
160820570,15.728945,12.166648,2,0.766174,0.094666,-0.049377,0.633667,-5.156365,2.560961,88.976007,0.434496,-22.965794,76.348638,13.510888,43.980184,76.621368,0.000000,0.000000,
160830275,16.556627,12.162001,2,0.762390,0.100891,-0.052185,0.637085,-5.422542,2.126974,88.075687,1.228257,-24.257772,75.057772,14.205699,45.065038,75.476737,0.000000,0.000000,
160841370,17.012468,12.166648,2,0.758423,0.106995,-0.054565,0.640564,-5.362427,2.295870,86.951513,1.529793,-24.972803,73.674999,14.954115,46.210344,74.157774,0.000000,0.000000,
160850678,17.746507,12.166648,2,0.754395,0.112915,-0.056580,0.644165,-5.106978,1.919204,86.521556,2.469657,-25.664308,72.967974,15.630095,47.217187,73.286781,0.000000,0.000000,
160860511,17.563127,12.166648,2,0.750549,0.118713,-0.057983,0.647461,-5.355615,1.301209,86.307322,3.642711,-26.817993,72.336982,16.265624,48.153894,72.591480,0.000000,0.000000,
160871324,19.035951,12.157354,2,0.746765,0.124207,-0.058838,0.650757,-5.467046,1.340089,85.719527,4.197071,-27.529572,71.464880,17.031047,49.249082,71.766752,0.000000,0.000000,
160880948,19.765489,12.166648,2,0.742859,0.129395,-0.059021,0.654175,-5.587157,-7.936543,61.820823,12.106499,-22.883067,47.175143,17.743832,50.016876,53.764445,0.000000,0.000000,
160890733,20.866075,12.166648,2,0.739258,0.134338,-0.058594,0.657288,6.562835,-5.262149,136.385861,18.312165,-31.845225,121.813530,18.512265,51.573400,103.579833,0.000000,0.000000,
160901880,21.878145,12.162001,2,0.736328,0.139038,-0.057922,0.659607,2.060633,-13.576811,-13.392002,12.338637,4.501398,-23.775594,19.373870,51.744933,10.349190,0.000000,0.000000,
160911430,21.417452,12.166648,2,0.729431,0.144653,-0.057861,0.666077,-1.793255,3.127976,-9.228391,-4.283940,1.175130,-18.661864,20.043655,51.796210,-10.888375,0.000000,0.000000,
160921076,21.605547,12.157354,2,0.715088,0.148560,-0.055908,0.680786,-2.676726,-1.865734,-4.743313,1.082424,-1.239909,-15.315289,20.677946,51.829836,-14.129101,0.000000,0.000000,
160931998,21.967821,12.166648,2,0.702393,0.148438,-0.047180,0.694519,-1.991216,-0.685456,-4.424127,-0.004145,-0.694690,-14.654991,21.355114,51.819271,-14.514079,0.000000,0.000000,
160941420,21.690050,12.171294,2,0.690430,0.147644,-0.038025,0.707153,-1.711611,-1.294927,-5.503007,0.422227,-0.175324,-15.693769,21.871693,51.710061,-15.377672,0.000000,0.000000,
160952118,21.878145,12.162001,2,0.676880,0.146301,-0.031372,0.720703,-0.754342,-1.519176,-3.797926,0.879578,0.320743,-13.848093,22.424704,51.562262,-14.257942,0.000000,0.000000,
160961487,21.873506,12.171294,2,0.662476,0.143127,-0.026245,0.734802,-0.933263,-1.096969,-3.626364,0.513807,0.061676,-13.671465,22.859383,51.370260,-13.828611,0.000000,0.000000,
160971074,22.246111,12.162001,2,0.647766,0.139099,-0.020264,0.748779,-0.150421,-1.551479,-3.048989,0.969420,0.741973,-12.992709,23.298177,51.174911,-13.216688,0.000000,0.000000,
160982165,22.335268,12.166648,2,0.633240,0.134460,-0.014038,0.762024,-0.008612,-1.704928,-3.169057,1.060675,0.938178,-13.106811,23.781489,50.918837,-13.136253,0.000000,0.000000,
160991595,22.335268,12.166648,2,0.618896,0.129517,-0.007935,0.774658,0.152790,-1.144414,-3.045163,0.486670,0.941794,-12.879180,24.135678,50.629882,-12.948063,0.000000,0.000000,
161001387,22.975359,12.171294,2,0.605164,0.124084,-0.002014,0.786377,0.100199,-1.370759,-3.066804,0.688050,0.938564,-12.954499,24.530342,50.369420,-12.952775,0.000000,0.000000,
161012179,22.979997,12.162001,2,0.592651,0.118347,0.003784,0.796692,0.671762,-1.702329,-2.788152,0.881023,1.518958,-12.638717,24.938869,50.054901,-12.722868,0.000000,0.000000,
161021660,23.987627,12.166648,2,0.581360,0.112549,0.009277,0.805786,0.831598,-1.786318,-2.808080,0.882318,1.687013,-12.654877,25.330442,49.825072,-12.673096,0.000000,0.000000,
161031389,24.448961,12.162001,2,0.571167,0.106506,0.014404,0.813782,1.102394,-1.626189,-2.855845,0.602920,1.879212,-12.647901,25.738308,49.600792,-12.654652,0.000000,0.000000,
161042550,24.905657,12.166648,2,0.562195,0.100586,0.018921,0.820618,1.320043,-1.651573,-2.745688,0.543768,2.053333,-12.541300,26.218995,49.365450,-12.571672,0.000000,0.000000,
161052016,25.644884,12.157354,2,0.554749,0.094727,0.022705,0.826294,1.364148,-1.474624,-2.744333,0.336002,2.011544,-12.527194,26.635967,49.180565,-12.539112,0.000000,0.000000,
161061781,25.362383,12.171294,2,0.548767,0.088867,0.025879,0.830872,1.523019,-1.497630,-2.534761,0.321205,2.133049,-12.316044,27.005394,48.914065,-12.375815,0.000000,0.000000,
161072553,25.635607,12.175941,2,0.544189,0.083069,0.028381,0.834351,1.994402,-1.451371,-2.453108,0.107135,2.520686,-12.200784,27.412967,48.625770,-12.247684,0.000000,0.000000,
161082030,26.186723,12.175941,2,0.541016,0.077637,0.029968,0.836914,1.756869,-1.751694,-2.495821,0.457989,2.410353,-12.329400,27.767034,48.367725,-12.307504,0.000000,0.000000,
161091602,26.835832,12.162001,2,0.539062,0.073059,0.030518,0.838562,1.626515,-1.332307,-2.533276,0.133919,2.109510,-12.330509,28.148918,48.143095,-12.324345,0.000000,0.000000,
161102647,27.288500,12.175941,2,0.538330,0.069214,0.030029,0.839355,2.143077,-0.812483,-2.508015,-0.526931,2.346081,-12.202113,28.605463,47.910205,-12.234865,0.000000,0.000000,
161112240,27.749468,12.171294,2,0.538818,0.065918,0.028809,0.839355,2.150734,-1.080184,-2.529725,-0.273251,2.471407,-12.261886,28.990381,47.694196,-12.254646,0.000000,0.000000,
161122110,28.574510,12.175941,2,0.540405,0.063232,0.026733,0.838562,1.667812,-0.730244,-2.638613,-0.378996,1.887760,-12.369676,29.424542,47.524537,-12.338854,0.000000,0.000000,
161132824,29.223741,12.162001,2,0.542969,0.061157,0.023865,0.837219,1.679349,-0.443162,-2.596784,-0.610910,1.780597,-12.297304,29.915635,47.369849,-12.308437,0.000000,0.000000,
161142267,29.035539,12.171294,2,0.546570,0.059753,0.020203,0.835022,1.572284,-0.153442,-2.674879,-0.808996,1.586082,-12.344416,30.286225,47.152266,-12.334776,0.000000,0.000000,
161152020,29.770403,12.171294,2,0.551086,0.059082,0.015991,0.832214,1.235887,-0.104739,-2.775335,-0.711583,1.281394,-12.466899,30.700917,46.971825,-12.431497,0.000000,0.000000,
161163040,29.497087,12.166648,2,0.556213,0.059265,0.011108,0.828857,1.107486,0.266157,-2.653746,-0.959837,1.046415,-12.317436,31.113655,46.699069,-12.347999,0.000000,0.000000,
161172562,30.047868,12.166648,2,0.562012,0.060059,0.005920,0.824951,0.712997,0.276672,-2.794507,-0.818309,0.723948,-12.487139,31.465502,46.457880,-12.449856,0.000000,0.000000,
161182388,30.142259,12.162001,2,0.568176,0.061646,0.000488,0.820618,0.480242,0.511975,-2.674203,-0.922546,0.456024,-12.372821,31.806997,46.185324,-12.393462,0.000000,0.000000,
161193207,30.138139,12.171294,2,0.574646,0.063904,-0.005005,0.815918,0.670578,0.387091,-2.754065,-0.859322,0.729622,-12.432018,32.161562,45.860839,-12.421688,0.000000,0.000000,
161202687,30.047868,12.166648,2,0.581177,0.066772,-0.010437,0.810974,0.204545,0.856637,-2.672835,-1.134741,0.166086,-12.371014,32.412869,45.501449,-12.384592,0.000000,0.000000,
161212479,30.872576,12.171294,2,0.587708,0.070251,-0.015808,0.805908,-0.099269,0.816219,-2.634334,-0.994689,-0.059289,-12.374919,32.724705,45.204807,-12.377511,0.000000,0.000000,
161223564,31.697344,12.175941,2,0.594055,0.073914,-0.021179,0.800781,-0.335235,1.118442,-2.882125,-1.251376,-0.290601,-12.640300,33.136135,44.948028,-12.569886,0.000000,0.000000,
161232979,31.791734,12.171294,2,0.600403,0.077637,-0.026611,0.795471,-0.934022,1.424119,-2.712828,-1.374776,-0.914610,-12.550008,33.442410,44.675796,-12.555334,0.000000,0.000000,
161243782,32.709947,12.171294,2,0.606689,0.081421,-0.032104,0.790100,-0.570848,0.769562,-2.775754,-0.849434,-0.328407,-12.591566,33.860913,44.456354,-12.581858,0.000000,0.000000,
161253269,32.983385,12.175941,2,0.612793,0.085449,-0.037048,0.784729,-1.224552,1.264495,-2.675090,-1.182929,-1.038337,-12.587655,34.206148,44.236401,-12.586102,0.000000,0.000000,
161262850,33.265581,12.162001,2,0.618286,0.089661,-0.040344,0.779785,-1.125116,0.895649,-2.617479,-0.858409,-0.830640,-12.537008,34.548115,44.009140,-12.550163,0.000000,0.000000,
161273600,33.996629,12.171294,2,0.623230,0.093506,-0.042603,0.775208,-1.649787,1.336387,-2.656175,-1.211855,-1.389579,-12.655883,34.972805,43.810568,-12.627555,0.000000,0.000000,
161283056,34.274217,12.166648,2,0.627686,0.097107,-0.044312,0.771118,-1.421061,1.250264,-2.695798,-1.205994,-1.108450,-12.661660,35.326116,43.611133,-12.652522,0.000000,0.000000,
161292926,34.457903,12.166648,2,0.631470,0.100220,-0.045410,0.767578,-1.252318,0.869638,-2.618102,-0.881742,-0.863504,-12.566754,35.680971,43.388594,-12.589736,0.000000,0.000000,
161303911,34.915025,12.171294,2,0.634583,0.102905,-0.045837,0.764587,-0.357779,0.597800,-2.367792,-0.761820,0.018961,-12.146726,36.090664,43.168259,-12.265430,0.000000,0.000000,
161313387,35.009477,12.166648,2,0.636902,0.104919,-0.045593,0.762451,-1.525135,0.452930,-2.452559,-0.448609,-1.047539,-12.486453,36.405657,42.926435,-12.427231,0.000000,0.000000,
161323088,34.821642,12.175941,2,0.638367,0.106384,-0.044556,0.761047,-0.864601,0.403373,-2.550179,-0.530365,-0.382424,-12.443409,36.684696,42.625877,-12.439074,0.000000,0.000000,
161334011,36.018785,12.171294,2,0.639160,0.107239,-0.042969,0.760376,-0.738641,0.468826,-2.579174,-0.624840,-0.267146,-12.437659,37.092005,42.414647,-12.438038,0.000000,0.000000,
161343478,35.838182,12.162001,2,0.639221,0.107605,-0.040833,0.760376,-0.842611,0.323521,-2.550643,-0.477188,-0.357262,-12.438311,37.384591,42.153936,-12.438238,0.000000,0.000000,
161353328,36.569933,12.171294,2,0.638916,0.107361,-0.038208,0.760742,-0.649023,0.100332,-2.511635,-0.287200,-0.153711,-12.380327,37.728858,41.939613,-12.395844,0.000000,0.000000,
161364175,36.112200,12.166648,2,0.638367,0.106689,-0.035156,0.761475,-0.371032,0.370178,-2.409224,-0.586131,0.033299,-12.191664,38.043349,41.624322,-12.246374,0.000000,0.000000,
161373738,36.848100,12.166648,2,0.637695,0.105652,-0.031860,0.762329,0.056295,0.218609,-2.488434,-0.528412,0.475731,-12.194570,38.337514,41.371528,-12.208451,0.000000,0.000000,
161383443,37.031816,12.166648,2,0.637146,0.104309,-0.028320,0.763123,0.061770,0.040892,-2.390015,-0.353884,0.474916,-12.115879,38.625710,41.105867,-12.140684,0.000000,0.000000,
161394462,37.121629,12.171294,2,0.636658,0.102539,-0.024658,0.763855,0.063421,-0.018701,-2.410334,-0.295082,0.472804,-12.143967,38.947934,40.801994,-12.143087,0.000000,0.000000,
161403889,37.673326,12.171294,2,0.636230,0.100525,-0.020813,0.764648,0.384065,-0.195198,-2.241077,-0.163240,0.773741,-11.948545,39.221856,40.544132,-12.000673,0.000000,0.000000,
161413723,37.399278,12.166648,2,0.636047,0.098206,-0.017029,0.765198,0.456161,0.030178,-2.279137,-0.411057,0.784902,-11.955290,39.462612,40.220036,-11.967450,0.000000,0.000000,
161424478,38.596208,12.162001,2,0.636353,0.095947,-0.013245,0.765320,0.560039,-0.161104,-2.299990,-0.246873,0.905451,-11.983828,39.819623,39.993167,-11.979440,0.000000,0.000000,
161434084,38.318010,12.166648,2,0.637268,0.093506,-0.009521,0.764893,0.580574,-0.180966,-2.220369,-0.218386,0.896050,-11.912410,40.073468,39.707927,-11.930371,0.000000,0.000000,
161444928,38.959581,12.171294,2,0.638794,0.091187,-0.005920,0.763916,0.687641,-0.123792,-2.090119,-0.272836,0.954883,-11.770861,40.407066,39.454063,-11.813602,0.000000,0.000000,
161454383,39.054064,12.166648,2,0.640869,0.088806,-0.002441,0.762512,0.746680,-0.125641,-2.109845,-0.288529,1.006545,-11.789457,40.662580,39.188359,-11.795926,0.000000,0.000000,
161463973,39.789140,12.166648,2,0.643616,0.086548,0.000854,0.760437,0.744523,-0.046096,-2.069472,-0.351556,0.972524,-11.741647,40.962445,38.976759,-11.756191,0.000000,0.000000,
161474973,40.157213,12.166648,2,0.647034,0.084351,0.004211,0.757751,0.910769,-0.021957,-2.178289,-0.406153,1.120149,-11.837901,41.320902,38.755674,-11.816007,0.000000,0.000000,
161484329,41.444292,12.166648,2,0.651123,0.082275,0.007446,0.754456,0.718659,0.172760,-2.028237,-0.541395,0.877145,-11.701364,41.693655,38.660275,-11.732083,0.000000,0.000000,
161494228,41.076677,12.166648,2,0.655945,0.080200,0.010437,0.750488,1.053561,0.173474,-1.947371,-0.569970,1.193927,-11.585615,42.022536,38.475825,-11.624861,0.000000,0.000000,
161504994,41.905870,12.162001,2,0.661377,0.078430,0.012817,0.745789,0.924161,0.216435,-2.007297,-0.590785,1.056503,-11.666102,42.426011,38.337064,-11.655051,0.000000,0.000000,
161514592,41.718462,12.171294,2,0.667480,0.077087,0.014587,0.740479,1.191537,0.169602,-1.926992,-0.541505,1.326709,-11.569179,42.732304,38.145669,-11.592189,0.000000,0.000000,
161524277,41.811907,12.166648,2,0.674011,0.075989,0.016174,0.734619,1.193956,0.090587,-1.887678,-0.443224,1.325263,-11.543620,43.021769,37.929764,-11.556634,0.000000,0.000000,
161535296,42.915361,12.166648,2,0.680908,0.075134,0.017456,0.728271,1.189821,0.229062,-1.926595,-0.557702,1.313891,-11.568931,43.429823,37.790292,-11.565636,0.000000,0.000000,
161544713,43.557756,12.171294,2,0.688232,0.074707,0.018677,0.721375,1.280358,0.167358,-1.876893,-0.472209,1.413327,-11.533383,43.796239,37.696237,-11.542025,0.000000,0.000000,
161554577,42.915361,12.166648,2,0.696228,0.075073,0.019531,0.713623,1.089025,0.311202,-1.926392,-0.595461,1.226886,-11.571608,44.091483,37.482540,-11.563681,0.000000,0.000000,
161565338,43.651232,12.166648,2,0.704163,0.075439,0.020386,0.705750,1.045707,0.440778,-1.985428,-0.705044,1.195193,-11.619444,44.456134,37.307839,-11.604502,0.000000,0.000000,
161574981,44.566881,12.175941,2,0.712891,0.076660,0.020752,0.696777,0.931783,0.631949,-2.024374,-0.880506,1.109602,-11.641932,44.824919,37.208138,-11.631903,0.000000,0.000000,
161584687,44.570513,12.166648,2,0.721924,0.078308,0.020813,0.687256,0.897112,0.464359,-2.065474,-0.702742,1.088189,-11.700463,45.163551,37.065804,-11.682092,0.000000,0.000000,
161595684,44.660875,12.171294,2,0.731140,0.080444,0.020752,0.677124,0.853900,0.604640,-2.004912,-0.814666,1.071468,-11.625985,45.527043,36.881263,-11.641019,0.000000,0.000000,
161605145,44.848863,12.162001,2,0.740479,0.082947,0.020508,0.666626,0.725840,0.608359,-2.005336,-0.802606,0.976394,-11.628753,45.816854,36.694176,-11.632040,0.000000,0.000000,
161615037,45.311144,12.157354,2,0.749756,0.085876,0.020325,0.655762,0.808144,0.487283,-1.985947,-0.652154,1.066958,-11.614554,46.135613,36.522131,-11.619240,0.000000,0.000000,
161626061,45.396349,12.171294,2,0.759033,0.089172,0.020081,0.644653,0.403755,0.518963,-1.967232,-0.723706,0.699640,-11.619547,46.473647,36.310607,-11.619464,0.000000,0.000000,
161635370,45.859148,12.166648,2,0.768127,0.092773,0.019897,0.633240,0.220309,0.395568,-1.968714,-0.635522,0.520912,-11.653330,46.758046,36.132203,-11.644256,0.000000,0.000000,
161645036,45.674761,12.166648,2,0.777100,0.096680,0.019775,0.621643,0.262948,0.275107,-2.029144,-0.513312,0.574829,-11.717654,47.013273,35.896548,-11.697987,0.000000,0.000000,
161656039,46.042528,12.166648,2,0.785828,0.100830,0.019775,0.609802,0.146962,0.199128,-2.049987,-0.467229,0.463776,-11.753876,47.323700,35.657923,-11.738901,0.000000,0.000000,
161665627,46.137071,12.162001,2,0.794373,0.105164,0.019897,0.597900,-0.070217,-0.100443,-1.893415,-0.223491,0.181151,-11.679875,47.562520,35.411236,-11.695691,0.000000,0.000000,
161675370,47.240465,12.162001,2,0.802612,0.109436,0.020325,0.585999,0.007560,-0.083838,-2.032475,-0.249104,0.300194,-11.799175,47.879171,35.259874,-11.771446,0.000000,0.000000,
161686154,47.237352,12.171294,2,0.810608,0.113708,0.020996,0.574036,-0.067176,-0.220157,-2.013741,-0.151502,0.197069,-11.813114,48.203298,35.060146,-11.801950,0.000000,0.000000,
161695624,47.146959,12.166648,2,0.818420,0.117920,0.021912,0.561951,-0.107969,-0.158891,-1.913864,-0.216960,0.176357,-11.704369,48.443559,34.829525,-11.730516,0.000000,0.000000,
161705507,47.052416,12.171294,2,0.825989,0.121948,0.023010,0.549866,-0.146064,-0.197056,-1.864455,-0.202241,0.125656,-11.666873,48.667182,34.557278,-11.683926,0.000000,0.000000,
161716607,47.977159,12.162001,2,0.833374,0.125732,0.024231,0.537659,-0.143490,-0.286246,-1.865051,-0.128664,0.109263,-11.685592,48.990441,34.349830,-11.685146,0.000000,0.000000,
161726059,48.528917,12.162001,2,0.840698,0.129272,0.025574,0.525208,-0.161541,-0.345266,-1.885435,-0.110049,0.073070,-11.718838,49.274703,34.186597,-11.709810,0.000000,0.000000,
161736909,48.434892,12.166648,2,0.847900,0.132507,0.026978,0.512634,-0.120454,-0.405936,-1.895663,-0.052211,0.093396,-11.737030,49.572344,33.964352,-11.729736,0.000000,0.000000,
161746148,49.265184,12.162001,2,0.855042,0.135376,0.028503,0.499695,-0.119637,-0.446238,-1.995538,-0.044340,0.102032,-11.850238,49.859084,33.819892,-11.817950,0.000000,0.000000,
161755884,49.355089,12.166648,2,0.862122,0.137878,0.030212,0.486572,-0.177549,-0.463084,-1.806607,-0.049578,0.007412,-11.670838,50.144318,33.649372,-11.710256,0.000000,0.000000,
161766608,49.081255,12.162001,2,0.869141,0.139771,0.032166,0.473267,-0.301318,-0.608015,-1.808025,-0.006768,-0.170794,-11.725421,50.412727,33.403965,-11.721358,0.000000,0.000000,
161776109,50.091448,12.166648,2,0.876160,0.141052,0.034424,0.459656,-0.286283,-0.439720,-1.747068,-0.143569,-0.083425,-11.617595,50.701839,33.257238,-11.645398,0.000000,0.000000,
161785838,49.723009,12.166648,2,0.883057,0.141968,0.036804,0.445740,-0.197953,-0.442957,-1.846384,-0.133506,0.003238,-11.703567,50.940431,33.033099,-11.687981,0.000000,0.000000,
161796880,50.365312,12.171294,2,0.889893,0.142456,0.039124,0.431580,-0.286479,-0.440118,-1.806834,-0.195919,-0.079578,-11.665784,51.254830,32.839650,-11.671731,0.000000,0.000000,
161806378,51.105333,12.162001,2,0.896606,0.142456,0.041565,0.417175,-0.285425,-0.469450,-1.747266,-0.177382,-0.112470,-11.619525,51.553307,32.712360,-11.633514,0.000000,0.000000,
161816191,51.379747,12.166648,2,0.903259,0.142029,0.044006,0.402588,-0.281927,-0.588237,-1.728139,-0.104625,-0.197156,-11.636009,51.858780,32.578605,-11.635340,0.000000,0.000000,
161827000,50.643327,12.166648,2,0.909729,0.141174,0.046509,0.387756,-0.048875,-0.476050,-1.706638,-0.034049,0.031558,-11.574537,52.105317,32.316688,-11.590829,0.000000,0.000000,
161836428,51.007646,12.175941,2,0.915955,0.139954,0.048950,0.372803,0.063357,-0.618201,-1.747050,0.122512,0.009116,-11.651023,52.314703,32.082486,-11.634894,0.000000,0.000000,
161846232,51.470201,12.171294,2,0.922058,0.138306,0.051514,0.357727,0.137431,-0.451755,-1.705819,0.068769,0.151646,-11.559610,52.555856,31.874030,-11.579783,0.000000,0.000000,
161857270,51.931719,12.166648,2,0.928040,0.136353,0.054077,0.342407,0.114019,-0.311848,-1.615308,-0.041490,0.193092,-11.437762,52.853108,31.677564,-11.475817,0.000000,0.000000,
161866755,51.838152,12.171294,3,0.933777,0.134033,0.056641,0.326904,0.130411,-0.203741,-1.664320,-0.109592,0.284331,-11.457651,53.065390,31.453818,-11.462519,0.000000,0.000000,
161876516,52.206163,12.171294,3,0.939453,0.131409,0.059143,0.310974,0.194030,-0.017255,-1.632950,-0.155853,0.440858,-11.372625,53.297746,31.245902,-11.396712,0.000000,0.000000,
161887381,52.942674,12.171294,3,0.944885,0.128418,0.061523,0.294739,0.064515,0.046453,-1.553289,-0.278238,0.392458,-11.276111,53.605917,31.083401,-11.308426,0.000000,0.000000,
161896825,53.682878,12.162001,3,0.950195,0.125244,0.063660,0.278198,0.123047,0.064556,-1.552961,-0.227640,0.431797,-11.277279,53.905613,30.985628,-11.285625,0.000000,0.000000,
161906676,53.310716,12.171294,3,0.955200,0.121887,0.065674,0.261475,0.229314,0.141087,-1.492306,-0.164036,0.537756,-11.214429,54.158997,30.808123,-11.233506,0.000000,0.000000,
161917777,54.787615,12.162001,3,0.959961,0.118408,0.067444,0.244751,0.347458,0.137522,-1.511836,-0.045364,0.581300,-11.248108,54.554589,30.753980,-11.244195,0.000000,0.000000,
161927161,54.050951,12.162001,3,0.964417,0.114929,0.069031,0.227966,0.455882,0.134508,-1.491555,0.068440,0.608996,-11.242599,54.799178,30.591317,-11.243027,0.000000,0.000000,
161936859,54.324907,12.166648,3,0.968506,0.111511,0.070618,0.211243,0.492229,0.232066,-1.550528,0.059106,0.699214,-11.284453,55.054406,30.428383,-11.273353,0.000000,0.000000,
161948015,55.062120,12.166648,3,0.972229,0.108215,0.072083,0.194580,0.391056,0.334423,-1.490427,-0.039197,0.733363,-11.198180,55.393837,30.304295,-11.218323,0.000000,0.000000,
161957447,55.155687,12.162001,3,0.975647,0.105042,0.073425,0.177979,0.412131,0.294675,-1.420899,0.018030,0.675048,-11.149696,55.658596,30.172120,-11.168085,0.000000,0.000000,
161967197,56.166460,12.166648,3,0.978760,0.101868,0.074707,0.161560,0.244929,0.300067,-1.341766,-0.102564,0.595549,-11.062093,55.996076,30.121582,-11.090493,0.000000,0.000000,
161978032,55.610674,12.175941,3,0.981567,0.098816,0.075806,0.145142,0.178314,0.548804,-1.449878,-0.246162,0.822650,-11.109374,56.288513,29.957835,-11.104315,0.000000,0.000000,
161987541,55.798845,12.166648,3,0.984070,0.095825,0.076721,0.128662,0.255502,0.606175,-1.419337,-0.158975,0.883461,-11.086358,56.530590,29.796937,-11.091169,0.000000,0.000000,
161997255,56.997392,12.162001,3,0.986267,0.093079,0.077393,0.112366,0.067446,0.641273,-1.429720,-0.316617,0.866549,-11.065013,56.859784,29.742078,-11.072021,0.000000,0.000000,
162008390,56.441545,12.171294,3,0.988159,0.090820,0.077759,0.096008,0.485764,0.481206,-1.339692,0.151241,0.788000,-11.072436,57.154161,29.571768,-11.072325,0.000000,0.000000,
162017711,56.899675,12.175941,3,0.989746,0.088928,0.078003,0.079773,0.156896,0.608836,-1.449547,-0.184875,0.862392,-11.118425,57.407332,29.439241,-11.106073,0.000000,0.000000,
162028699,57.181474,12.162001,3,0.991028,0.087280,0.078308,0.063843,-0.029060,0.574764,-1.430510,-0.333430,0.793320,-11.080423,57.710628,29.292026,-11.087296,0.000000,0.000000,
162037835,57.456041,12.166648,3,0.992065,0.085876,0.078491,0.048096,-0.079523,0.615701,-1.450331,-0.372833,0.835319,-11.093504,57.955783,29.161760,-11.091841,0.000000,0.000000,
162047705,57.361955,12.171294,3,0.992737,0.084778,0.078674,0.032532,-0.078886,0.596014,-1.430541,-0.346645,0.813081,-11.078142,58.191849,28.985539,-11.081813,0.000000,0.000000,
162058484,58.008867,12.166648,3,0.993225,0.083923,0.078857,0.017273,-0.143739,0.459475,-1.401813,-0.381831,0.675887,-11.063532,58.487846,28.845702,-11.068430,0.000000,0.000000,
162068063,58.467058,12.171294,3,0.993347,0.083374,0.079102,0.002380,-0.128140,0.597444,-1.430704,-0.352758,0.829834,-11.070403,58.761856,28.737306,-11.069874,0.000000,0.000000,
162077790,58.471178,12.162001,3,0.993286,0.083069,0.079346,-0.012146,-0.009358,0.574192,-1.430445,-0.214331,0.813049,-11.094132,59.015787,28.596642,-11.087632,0.000000,0.000000,
162088900,59.112993,12.166648,3,0.992981,0.083069,0.079773,-0.026245,-0.279876,0.393646,-1.472461,-0.481903,0.653435,-11.122729,59.341201,28.484004,-11.113325,0.000000,0.000000,
162098248,60.037767,12.157354,3,0.992493,0.083252,0.080322,-0.039978,-0.310352,0.424102,-1.492283,-0.501376,0.700875,-11.133357,59.667146,28.458905,-11.127989,0.000000,0.000000,
162108064,59.760546,12.162001,3,0.991760,0.083618,0.081055,-0.053406,-0.278601,0.354271,-1.432882,-0.452458,0.624951,-11.096084,59.954022,28.360507,-11.104633,0.000000,0.000000,
162118853,59.572283,12.171294,3,0.990845,0.084167,0.081909,-0.066406,-0.309200,0.394968,-1.402832,-0.456080,0.679444,-11.047942,60.226411,28.198373,-11.063133,0.000000,0.000000,
162128370,59.851061,12.166648,3,0.989807,0.084961,0.082886,-0.079041,-0.286703,0.295164,-1.423351,-0.443865,0.586983,-11.092655,60.461865,28.050324,-11.084745,0.000000,0.000000,
162138179,60.309343,12.171294,3,0.988525,0.085815,0.084106,-0.091431,-0.134969,0.152067,-1.433749,-0.320342,0.438053,-11.146303,60.723318,27.923816,-11.129808,0.000000,0.000000,
162149256,60.125200,12.171294,3,0.987183,0.086792,0.085449,-0.103394,-0.114091,0.111922,-1.423987,-0.298195,0.404523,-11.143205,60.980306,27.733168,-11.139615,0.000000,0.000000,
162158590,60.955919,12.166648,3,0.985657,0.087830,0.086975,-0.114990,-0.064298,0.090605,-1.433917,-0.254624,0.377576,-11.163623,61.236574,27.626193,-11.157190,0.000000,0.000000,
162168424,61.045915,12.171294,3,0.984009,0.088867,0.088745,-0.126404,-0.032294,0.010798,-1.384544,-0.239082,0.295129,-11.131081,61.491268,27.495256,-11.138077,0.000000,0.000000,
162179077,61.693071,12.166648,3,0.982239,0.089966,0.090820,-0.137451,-0.094766,0.131567,-1.364023,-0.260320,0.430833,-11.079254,61.800964,27.399903,-11.095015,0.000000,0.000000,
162188722,61.140062,12.166648,3,0.980286,0.091003,0.093140,-0.148376,0.065135,0.047710,-1.364030,-0.138343,0.316891,-11.124424,62.007668,27.217910,-11.116544,0.000000,0.000000,
162198430,61.140062,12.166648,3,0.978271,0.091919,0.095642,-0.159241,0.041233,0.186625,-1.422935,-0.124945,0.466086,-11.157848,62.196555,27.011895,-11.146781,0.000000,0.000000,
162209477,61.967760,12.171294,3,0.976135,0.092712,0.098267,-0.170105,0.141277,0.144919,-1.303341,-0.024514,0.374118,-11.063052,62.474536,26.863960,-11.085487,0.000000,0.000000,
162218894,62.246111,12.166648,3,0.973816,0.093262,0.101013,-0.181091,0.192248,0.084029,-1.303574,-0.004132,0.298522,-11.086881,62.707298,26.733683,-11.086508,0.000000,0.000000,
162228727,62.061418,12.166648,3,0.971313,0.093750,0.103943,-0.192139,0.125776,0.007149,-1.244567,-0.090926,0.243010,-11.027620,62.913933,26.552518,-11.043399,0.000000,0.000000,
162239701,63.351732,12.166648,3,0.968689,0.094055,0.106873,-0.203308,0.199660,-0.163191,-1.225541,-0.098897,0.055911,-11.043875,63.242451,26.480536,-11.043747,0.000000,0.000000,
162249183,63.077013,12.162001,3,0.965942,0.094238,0.109863,-0.214600,0.199023,-0.143503,-1.245331,-0.105396,0.083759,-11.061562,63.478753,26.356901,-11.056789,0.000000,0.000000,
162260026,63.351732,12.166648,3,0.962952,0.094360,0.112854,-0.225891,0.262549,-0.293604,-1.206284,-0.122539,-0.080955,-11.062446,63.752918,26.222637,-11.060930,0.000000,0.000000,
162269363,63.261186,12.162001,3,0.959900,0.094421,0.115723,-0.237183,0.377546,-0.188159,-1.225086,0.017136,-0.028558,-11.089599,63.954796,26.063307,-11.081918,0.000000,0.000000,
162279006,63.441240,12.171294,3,0.956726,0.094360,0.118530,-0.248535,0.358008,-0.187256,-1.175346,-0.001938,-0.038858,-11.041207,64.161319,25.898968,-11.052116,0.000000,0.000000,
162290113,64.088548,12.166648,3,0.953308,0.094116,0.121338,-0.259949,0.356292,-0.127797,-1.174949,0.011287,0.012285,-11.034384,64.442017,25.768230,-11.039135,0.000000,0.000000,
162299540,64.825395,12.166648,3,0.949768,0.093689,0.124146,-0.271484,0.443870,-0.090599,-1.154468,0.103937,-0.007202,-11.039503,64.717556,25.707605,-11.039405,0.000000,0.000000,
162309329,64.547533,12.171294,3,0.946045,0.092896,0.126892,-0.283264,0.407834,-0.208506,-1.175315,-0.003026,-0.082236,-11.062254,64.954010,25.580161,-11.056131,0.000000,0.000000,
162320083,65.194383,12.166648,3,0.942139,0.091858,0.129456,-0.295166,0.356864,-0.147616,-1.175081,-0.023777,-0.008217,-11.038857,65.249209,25.488467,-11.043485,0.000000,0.000000,
162329574,65.652879,12.171294,3,0.938049,0.090576,0.131958,-0.307251,0.296239,-0.086043,-1.115114,-0.036879,0.049844,-10.956850,65.525477,25.430154,-10.980064,0.000000,0.000000,
162339394,65.837114,12.171294,3,0.933777,0.089050,0.134399,-0.319458,0.355850,-0.107712,-1.134972,-0.017114,0.008969,-10.990745,65.801544,25.357293,-10.987883,0.000000,0.000000,
162350500,65.837114,12.171294,3,0.929321,0.087280,0.136658,-0.331787,0.545369,-0.192294,-1.114959,0.057750,-0.182179,-11.043084,66.085550,25.238663,-11.028293,0.000000,0.000000,
162359927,66.209734,12.162001,3,0.924622,0.085327,0.138794,-0.344299,0.426653,-0.168909,-1.095297,-0.020303,-0.109908,-10.982167,66.333715,25.149226,-10.994526,0.000000,0.000000,
162369744,66.112444,12.175941,3,0.919739,0.083130,0.140747,-0.356873,0.482129,-0.052103,-1.154072,0.077441,-0.047803,-11.052278,66.560981,25.015792,-11.036803,0.000000,0.000000,
162380380,66.759386,12.171294,3,0.914612,0.080750,0.142639,-0.369568,0.462117,-0.031181,-1.074317,0.081542,-0.048501,-10.961993,66.843556,24.921497,-10.982038,0.000000,0.000000,
162389959,66.947283,12.162001,3,0.909302,0.078186,0.144348,-0.382385,0.353562,-0.028432,-1.134443,-0.012505,0.028609,-10.986859,67.090728,24.827977,-10.985567,0.000000,0.000000,
162399760,66.762499,12.162001,3,0.903809,0.075378,0.145874,-0.395203,0.402219,0.000397,-1.054393,0.050096,-0.011179,-10.926630,67.305240,24.683943,-10.942422,0.000000,0.000000,
162410865,66.853075,12.166648,3,0.898010,0.072388,0.147278,-0.408203,0.372225,0.021340,-1.014514,0.043670,0.007200,-10.877552,67.539651,24.512335,-10.894934,0.000000,0.000000,
162420349,67.131548,12.162001,3,0.892090,0.069153,0.148376,-0.421204,0.310195,0.122024,-1.033970,0.058431,0.108994,-10.882223,67.736385,24.362877,-10.885629,0.000000,0.000000,
162430049,67.402757,12.175941,3,0.885864,0.065796,0.149292,-0.434326,0.309247,0.162061,-0.973939,0.096371,0.104331,-10.824471,67.943417,24.220268,-10.840859,0.000000,0.000000,
162440970,67.865495,12.171294,3,0.879456,0.062378,0.149963,-0.447388,0.190972,0.165361,-0.994253,0.032133,0.194642,-10.803439,68.200557,24.093513,-10.813465,0.000000,0.000000,
162450319,68.143480,12.166648,3,0.872864,0.058838,0.150452,-0.460388,0.254147,0.025037,-0.975062,-0.051478,0.053490,-10.805383,68.420407,23.986033,-10.807548,0.000000,0.000000,
162460233,68.787431,12.171294,3,0.866150,0.055176,0.150696,-0.473328,0.253101,0.064876,-0.944914,-0.017061,0.057723,-10.783007,68.689328,23.920426,-10.789582,0.000000,0.000000,
162471270,68.787431,12.171294,3,0.859253,0.051575,0.150818,-0.486145,0.330093,0.121849,-0.974139,0.051597,0.018234,-10.831009,68.961147,23.811925,-10.819909,0.000000,0.000000,
162480777,69.156023,12.171294,3,0.852173,0.047974,0.150696,-0.498779,0.196219,-0.012820,-0.965562,-0.127638,0.057884,-10.774399,69.203876,23.731596,-10.786593,0.000000,0.000000,
162490333,69.618852,12.166648,3,0.845032,0.044495,0.150513,-0.511169,-0.033210,0.092859,-0.965651,-0.135521,0.292427,-10.718431,69.465964,23.675971,-10.736695,0.000000,0.000000,
162501333,69.337236,12.180587,3,0.837769,0.041077,0.150146,-0.523376,0.025388,0.111095,-0.945401,-0.096979,0.245960,-10.719066,69.714641,23.543600,-10.723789,0.000000,0.000000,
162510709,69.525163,12.171294,3,0.830383,0.037720,0.149780,-0.535400,0.025290,0.110896,-0.975284,-0.101677,0.241440,-10.742852,69.918553,23.421417,-10.737744,0.000000,0.000000,
162521705,70.168688,12.175941,3,0.822754,0.034363,0.149231,-0.547363,0.022528,0.210194,-0.944739,-0.004948,0.273276,-10.726704,70.197050,23.331608,-10.729662,0.000000,0.000000,
162530948,70.540453,12.166648,3,0.815125,0.031006,0.148499,-0.559082,-0.033782,0.112679,-0.965519,-0.110409,0.283128,-10.724929,70.441906,23.271425,-10.726197,0.000000,0.000000,
162540849,70.634660,12.162001,3,0.807434,0.027710,0.147766,-0.570435,-0.073757,0.133643,-0.965517,-0.101600,0.317811,-10.721331,70.688418,23.186972,-10.722635,0.000000,0.000000,
162551802,70.172319,12.166648,3,0.799805,0.024597,0.147034,-0.581421,-0.074264,0.153595,-0.945463,-0.074795,0.323084,-10.707995,70.897182,23.011652,-10.711918,0.000000,0.000000,
162561248,70.909624,12.166648,3,0.792114,0.021545,0.146301,-0.592224,-0.134799,0.204861,-0.945328,-0.039569,0.382516,-10.695625,71.115148,22.912036,-10.699991,0.000000,0.000000,
162570846,71.371996,12.162001,3,0.784302,0.018616,0.145630,-0.602722,-0.036577,0.211911,-0.944935,-0.005773,0.283828,-10.728103,71.356714,22.838004,-10.720571,0.000000,0.000000,
162581776,71.646959,12.166648,3,0.776489,0.015808,0.144897,-0.613037,-0.191901,0.137208,-0.945987,-0.103622,0.411186,-10.675123,71.630743,22.753885,-10.687301,0.000000,0.000000,
162591239,71.832353,12.166648,3,0.768616,0.013123,0.144226,-0.623108,-0.271214,0.159448,-0.926194,-0.090551,0.481723,-10.647946,71.862992,22.675937,-10.658491,0.000000,0.000000,
162601107,71.643846,12.175941,3,0.760803,0.010559,0.143616,-0.632812,-0.212175,0.157600,-0.945920,-0.078700,0.423056,-10.678981,72.067340,22.545904,-10.673491,0.000000,0.000000,
162611881,72.200517,12.166648,3,0.752930,0.008240,0.143127,-0.642273,-0.113602,0.154872,-0.925671,-0.056317,0.324699,-10.689823,72.321121,22.445697,-10.685447,0.000000,0.000000,
162621427,72.200517,12.166648,3,0.745117,0.006042,0.142639,-0.651489,-0.269498,0.099988,-0.926591,-0.125167,0.456489,-10.646005,72.524494,22.330447,-10.656573,0.000000,0.000000,
162631056,72.844743,12.171294,3,0.737366,0.004028,0.142212,-0.660400,-0.209119,0.058897,-0.886816,-0.144568,0.388778,-10.611503,72.766633,22.264309,-10.623580,0.000000,0.000000,
162642142,73.400957,12.162001,3,0.729614,0.002197,0.141907,-0.668945,-0.268861,0.080301,-0.906802,-0.124769,0.454854,-10.631813,73.067535,22.217587,-10.629607,0.000000,0.000000,
162651636,73.028581,12.171294,3,0.722046,0.000549,0.141663,-0.677185,-0.394412,-0.005303,-0.927744,-0.214338,0.566449,-10.610813,73.274628,22.112446,-10.615849,0.000000,0.000000,
162661511,73.213487,12.171294,3,0.714539,-0.000854,0.141541,-0.685120,-0.472581,-0.022702,-0.908216,-0.220117,0.637633,-10.574245,73.487201,22.001141,-10.585393,0.000000,0.000000,
162672289,73.857256,12.175941,3,0.707153,-0.002075,0.141541,-0.692749,-0.352459,-0.085197,-0.848455,-0.256882,0.510024,-10.529764,73.755662,21.929243,-10.544670,0.000000,0.000000,
162681809,74.319750,12.171294,3,0.699768,-0.003174,0.141663,-0.700134,-0.432606,-0.043666,-0.908218,-0.226065,0.599742,-10.580982,74.012648,21.892319,-10.571252,0.000000,0.000000,
162691527,74.229112,12.166648,3,0.692505,-0.004150,0.141907,-0.707275,-0.246209,-0.029678,-0.967231,-0.218912,0.439652,-10.677600,74.243557,21.812923,-10.649104,0.000000,0.000000,
162702568,74.323900,12.162001,3,0.685364,-0.005005,0.142273,-0.714172,-0.273849,-0.087883,-0.907960,-0.251011,0.448915,-10.598668,74.490683,21.704906,-10.612182,0.000000,0.000000,
162711943,74.688555,12.171294,3,0.678284,-0.005737,0.142883,-0.720703,-0.266417,-0.009154,-0.947241,-0.183146,0.457919,-10.655250,74.710782,21.627405,-10.643710,0.000000,0.000000,
162721794,74.872942,12.171294,3,0.671387,-0.006287,0.143677,-0.727051,-0.225167,-0.069493,-0.907664,-0.230066,0.408137,-10.618592,74.937304,21.541051,-10.625322,0.000000,0.000000,
162732495,74.782823,12.166648,3,0.664490,-0.006653,0.144714,-0.733093,-0.208040,0.019125,-0.907003,-0.146605,0.386160,-10.635252,75.153875,21.409887,-10.632591,0.000000,0.000000,
162742151,74.779192,12.175941,3,0.657715,-0.006958,0.145996,-0.738892,-0.205972,-0.050113,-0.887544,-0.203983,0.390333,-10.598468,75.327772,21.265214,-10.607611,0.000000,0.000000,
162753184,74.685442,12.180587,3,0.651001,-0.007080,0.147461,-0.744568,-0.148142,-0.012454,-0.926927,-0.177650,0.348016,-10.652055,75.506254,21.075377,-10.640146,0.000000,0.000000,
162762584,75.705370,12.166648,3,0.644226,-0.007263,0.149170,-0.750122,-0.188142,0.018950,-0.847171,-0.124788,0.368014,-10.574634,75.721104,20.998601,-10.592188,0.000000,0.000000,
162772196,76.074205,12.166648,3,0.637451,-0.007385,0.151001,-0.755493,-0.165490,-0.091029,-0.907600,-0.237904,0.377640,-10.611616,75.952917,20.936437,-10.606410,0.000000,0.000000,
162783254,75.980455,12.171294,3,0.630798,-0.007507,0.153076,-0.760681,-0.069557,-0.004700,-0.906678,-0.180559,0.271584,-10.649346,76.186157,20.821788,-10.637841,0.000000,0.000000,
162792774,76.439958,12.175941,3,0.624207,-0.007507,0.155212,-0.765625,0.026287,0.091937,-0.845923,-0.092030,0.159193,-10.634272,76.405825,20.749319,-10.635228,0.000000,0.000000,
162802497,75.426683,12.171294,3,0.617737,-0.007507,0.157532,-0.770447,0.026287,0.091937,-0.845923,-0.091644,0.158066,-10.628847,76.522585,20.535551,-10.630557,0.000000,0.000000,
162813290,76.533739,12.171294,3,0.611206,-0.007507,0.159912,-0.775146,0.145069,0.068684,-0.845663,-0.146458,0.051954,-10.648732,76.744567,20.421879,-10.643862,0.000000,0.000000,
162822771,77.087541,12.171294,3,0.604675,-0.007507,0.162415,-0.779724,0.048408,0.012350,-0.806543,-0.169838,0.148257,-10.574030,76.967328,20.360457,-10.592742,0.000000,0.000000,
162832480,76.997392,12.166648,3,0.598145,-0.007446,0.165039,-0.784180,0.046561,0.071545,-0.845990,-0.127805,0.153679,-10.631173,77.167098,20.260623,-10.620876,0.000000,0.000000,
162843636,77.271990,12.171294,3,0.591614,-0.007385,0.167786,-0.788513,0.065821,0.091057,-0.805948,-0.103396,0.124402,-10.600398,77.401521,20.154132,-10.605885,0.000000,0.000000,
162853077,77.641405,12.171294,3,0.585083,-0.007385,0.170532,-0.792786,0.044779,0.130872,-0.865515,-0.080034,0.153643,-10.659550,77.612039,20.080661,-10.645171,0.000000,0.000000,
162862840,77.456957,12.171294,3,0.578613,-0.007263,0.173340,-0.796936,0.193946,0.087471,-0.785601,-0.149437,0.009602,-10.599395,77.794205,19.959705,-10.611661,0.000000,0.000000,
162873551,77.550737,12.166648,3,0.572205,-0.007202,0.176086,-0.800964,0.065886,0.091190,-0.786026,-0.110655,0.131492,-10.573208,77.986375,19.819078,-10.583511,0.000000,0.000000,
162883084,78.194780,12.171294,3,0.565735,-0.007263,0.178894,-0.804932,0.064677,0.130697,-0.805683,-0.079670,0.127029,-10.602840,78.192817,19.741555,-10.597661,0.000000,0.000000,
162892764,78.194780,12.171294,3,0.559265,-0.007324,0.181580,-0.808838,0.122866,0.169084,-0.735495,-0.048391,0.049021,-10.558468,78.383591,19.639571,-10.568970,0.000000,0.000000,
162903848,78.194780,12.171294,3,0.552734,-0.007446,0.184265,-0.812683,0.173101,0.127683,-0.785402,-0.123884,0.039652,-10.597984,78.584331,19.500933,-10.590210,0.000000,0.000000,
162913329,78.654375,12.175941,3,0.546265,-0.007629,0.186829,-0.816467,0.231192,0.165872,-0.745097,-0.106185,-0.031570,-10.592145,78.774791,19.408436,-10.591626,0.000000,0.000000,
162923161,79.120744,12.162001,3,0.539734,-0.007812,0.189392,-0.820251,0.210788,0.185999,-0.784874,-0.098560,-0.003748,-10.628321,78.994939,19.342893,-10.618489,0.000000,0.000000,
162933973,79.117113,12.171294,3,0.533020,-0.008118,0.191833,-0.824036,0.213305,0.107183,-0.715677,-0.156184,-0.001865,-10.539297,79.214007,19.242653,-10.560517,0.000000,0.000000,
162943474,79.302629,12.171294,3,0.526306,-0.008423,0.194214,-0.827759,0.271837,0.125286,-0.715348,-0.163896,-0.054994,-10.554475,79.404006,19.152402,-10.556094,0.000000,0.000000,
162954297,79.396410,12.166648,3,0.519531,-0.008728,0.196533,-0.831482,0.292111,0.104894,-0.715415,-0.202256,-0.066683,-10.548897,79.610019,19.037374,-10.550826,0.000000,0.000000,
162963626,79.671068,12.171294,3,0.512756,-0.009033,0.198792,-0.835144,0.252708,0.106038,-0.715546,-0.191428,-0.024305,-10.546787,79.792432,18.945901,-10.547869,0.000000,0.000000,
162973392,80.225054,12.171294,3,0.505920,-0.009460,0.200806,-0.838806,0.292111,0.104894,-0.715415,-0.212667,-0.049753,-10.547652,80.014261,18.891581,-10.547710,0.000000,0.000000,
162984225,80.225054,12.171294,3,0.499084,-0.009949,0.202698,-0.842468,0.311240,0.124142,-0.715217,-0.212705,-0.078421,-10.553938,80.236484,18.800921,-10.552269,0.000000,0.000000,
162993763,80.221422,12.180587,3,0.492126,-0.010498,0.204529,-0.846069,0.310358,0.164312,-0.635265,-0.166548,-0.116299,-10.498520,80.414032,18.699098,-10.512922,0.000000,0.000000,
163003602,80.500261,12.175941,3,0.485107,-0.011108,0.206177,-0.849731,0.270382,0.185276,-0.635263,-0.128168,-0.084684,-10.501353,80.604940,18.605478,-10.504453,0.000000,0.000000,
163014379,80.778551,12.171294,3,0.477966,-0.011841,0.207764,-0.853333,0.250329,0.195625,-0.655184,-0.120584,-0.060323,-10.509844,80.819823,18.511718,-10.508399,0.000000,0.000000,
163023823,80.963060,12.171294,3,0.470825,-0.012634,0.209229,-0.856934,0.251188,0.165895,-0.655383,-0.146155,-0.046499,-10.502470,81.006543,18.428727,-10.504059,0.000000,0.000000,
163033500,81.332628,12.171294,3,0.463623,-0.013611,0.210571,-0.860535,0.271968,0.125551,-0.675504,-0.205757,-0.036053,-10.508963,81.212493,18.363696,-10.507648,0.000000,0.000000,
163044534,81.053240,12.175941,3,0.456360,-0.014648,0.211792,-0.864136,0.250811,0.186113,-0.595484,-0.126408,-0.076462,-10.457383,81.400744,18.230437,-10.470851,0.000000,0.000000,
163054140,81.148088,12.171294,3,0.449036,-0.015808,0.212830,-0.867676,0.213125,0.127797,-0.596012,-0.155566,-0.017199,-10.427989,81.553573,18.101707,-10.439474,0.000000,0.000000,
163063954,81.701647,12.171294,3,0.441589,-0.017029,0.213806,-0.871216,0.212552,0.147617,-0.595880,-0.146449,-0.029261,-10.434341,81.743493,18.015980,-10.435717,0.000000,0.000000,
163074950,81.976885,12.175941,3,0.434204,-0.018372,0.214600,-0.874695,0.171588,0.198046,-0.635523,-0.099840,-0.004812,-10.477538,81.961111,17.927017,-10.466332,0.000000,0.000000,
163084319,81.979997,12.166648,3,0.426758,-0.019775,0.215271,-0.878174,0.192279,0.168009,-0.595812,-0.129412,-0.019406,-10.440305,82.130243,17.831350,-10.447279,0.000000,0.000000,
163094145,82.161424,12.175941,3,0.419312,-0.021240,0.215820,-0.881592,0.191772,0.187961,-0.575758,-0.111468,-0.031739,-10.423255,82.307641,17.732442,-10.429692,0.000000,0.000000,
163105217,82.070696,12.171294,3,0.411865,-0.022705,0.216309,-0.884949,0.253100,0.106833,-0.596014,-0.221819,-0.027469,-10.412632,82.482879,17.590515,-10.417203,0.000000,0.000000,
163114714,82.899553,12.175941,3,0.404419,-0.024292,0.216675,-0.888245,0.192916,0.148321,-0.576023,-0.151042,-0.009918,-10.405924,82.685463,17.538933,-10.408946,0.000000,0.000000,
163124317,82.899553,12.175941,3,0.396912,-0.025818,0.216919,-0.891479,0.273439,0.086573,-0.576159,-0.249894,-0.029471,-10.394483,82.871880,17.463260,-10.398358,0.000000,0.000000,
163135404,82.530992,12.175941,3,0.389404,-0.027405,0.217102,-0.894714,0.312433,0.105580,-0.526090,-0.259210,-0.084313,-10.351847,83.035430,17.310175,-10.364310,0.000000,0.000000,
163144704,83.269182,12.175941,3,0.382019,-0.028992,0.217163,-0.897827,0.292634,0.105953,-0.556039,-0.251666,-0.061691,-10.380349,83.216152,17.240124,-10.376051,0.000000,0.000000,
163155679,83.272814,12.166648,3,0.374634,-0.030518,0.217163,-0.900879,0.312907,0.085561,-0.556106,-0.284435,-0.060137,-10.374114,83.409632,17.132646,-10.374633,0.000000,0.000000,
163164835,83.551195,12.162001,3,0.367249,-0.032104,0.217102,-0.903870,0.370737,0.123220,-0.595489,-0.322088,-0.101357,-10.427239,83.578286,17.053210,-10.413143,0.000000,0.000000,
163174694,83.457353,12.166648,3,0.359802,-0.033630,0.216919,-0.906860,0.333688,0.045217,-0.576227,-0.344037,-0.034665,-10.374032,83.735482,16.937324,-10.384512,0.000000,0.000000,
163185529,83.269182,12.175941,3,0.352356,-0.035217,0.216736,-0.909729,0.276520,-0.022569,-0.596809,-0.343753,0.060266,-10.358945,83.878145,16.772693,-10.365796,0.000000,0.000000,
163195010,83.822832,12.175941,3,0.344849,-0.036804,0.216431,-0.912659,0.336965,-0.063528,-0.537112,-0.408870,0.027893,-10.290123,84.031932,16.668898,-10.310400,0.000000,0.000000,
163204752,84.101763,12.171294,3,0.337280,-0.038452,0.216064,-0.915466,0.357271,-0.083854,-0.527218,-0.434332,0.032797,-10.270520,84.199856,16.576700,-10.281205,0.000000,0.000000,
163215809,84.101763,12.171294,3,0.329651,-0.040100,0.215576,-0.918274,0.356666,-0.064100,-0.537046,-0.430676,0.021660,-10.285189,84.374049,16.451968,-10.284121,0.000000,0.000000,
163225160,84.561632,12.175941,3,0.321960,-0.041870,0.215027,-0.921082,0.356470,-0.064497,-0.596812,-0.449901,0.052478,-10.332059,84.543634,16.376573,-10.319214,0.000000,0.000000,
163235054,85.115373,12.175941,3,0.314209,-0.043701,0.214417,-0.923767,0.376368,-0.064672,-0.536981,-0.445741,0.024651,-10.276017,84.754468,16.339222,-10.287591,0.000000,0.000000,
163245815,84.655473,12.171294,3,0.306396,-0.045593,0.213745,-0.926453,0.338714,-0.122921,-0.527548,-0.452161,0.089845,-10.234854,84.921160,16.217948,-10.248985,0.000000,0.000000,
163255454,84.840044,12.171294,3,0.298462,-0.047668,0.213013,-0.929138,0.317901,-0.082643,-0.517387,-0.408826,0.072142,-10.249350,85.070005,16.109984,-10.249252,0.000000,0.000000,
163265152,85.025133,12.171294,3,0.290405,-0.049866,0.212341,-0.931702,0.359151,-0.142982,-0.477810,-0.469157,0.085903,-10.183885,85.221893,16.006169,-10.201400,0.000000,0.000000,
163276289,85.673265,12.166648,3,0.282227,-0.052185,0.211609,-0.934265,0.358007,-0.103343,-0.477545,-0.452728,0.061418,-10.195442,85.438488,15.943310,-10.197039,0.000000,0.000000,
163285538,86.132189,12.171294,3,0.273865,-0.054626,0.210876,-0.936768,0.378787,-0.143687,-0.497666,-0.493485,0.096762,-10.192136,85.645418,15.927673,-10.193450,0.000000,0.000000,
163295365,85.485063,12.175941,3,0.265381,-0.057190,0.210083,-0.939209,0.320156,-0.161989,-0.527878,-0.459067,0.158854,-10.207349,85.787618,15.809322,-10.203624,0.000000,0.000000,
163306165,86.223955,12.175941,3,0.256775,-0.059937,0.209351,-0.941589,0.360164,-0.182887,-0.517919,-0.512602,0.150805,-10.186277,85.995419,15.748318,-10.190925,0.000000,0.000000,
163315811,86.593187,12.175941,3,0.248047,-0.062744,0.208496,-0.943970,0.359657,-0.162935,-0.497864,-0.502309,0.129441,-10.174124,86.198463,15.717763,-10.178626,0.000000,0.000000,
163325619,86.408556,12.175941,3,0.239197,-0.065735,0.207703,-0.946228,0.320892,-0.181478,-0.478205,-0.470416,0.161501,-10.147764,86.370257,15.641897,-10.156034,0.000000,0.000000,
163336755,86.408556,12.175941,3,0.230164,-0.068848,0.206909,-0.948425,0.302269,-0.220678,-0.498457,-0.478852,0.220671,-10.145518,86.547124,15.533218,-10.148336,0.000000,0.000000,
163346178,86.687029,12.171294,3,0.221008,-0.072083,0.206055,-0.950500,0.300618,-0.161086,-0.478138,-0.441772,0.170996,-10.153633,86.705130,15.453410,-10.152214,0.000000,0.000000,
163357034,87.240892,12.171294,3,0.211670,-0.075439,0.205261,-0.952576,0.282763,-0.219709,-0.438757,-0.444706,0.216508,-10.082794,86.918594,15.404347,-10.101395,0.000000,0.000000,
163366412,86.593187,12.175941,3,0.202271,-0.078918,0.204468,-0.954468,0.319110,-0.122151,-0.497730,-0.453343,0.143554,-10.178390,87.034487,15.271937,-10.157760,0.000000,0.000000,
163376166,87.425493,12.171294,3,0.192688,-0.082581,0.203674,-0.956360,0.320254,-0.161791,-0.497995,-0.470990,0.180353,-10.152854,87.216706,15.217001,-10.154168,0.000000,0.000000,
163387095,87.519365,12.166648,3,0.182922,-0.086304,0.202881,-0.958069,0.318097,-0.082246,-0.457621,-0.431112,0.110051,-10.152035,87.408542,15.140092,-10.152607,0.000000,0.000000,
163396448,87.331651,12.175941,3,0.173035,-0.090210,0.202087,-0.959717,0.277615,-0.041330,-0.437565,-0.378677,0.095104,-10.145420,87.543063,15.036492,-10.147345,0.000000,0.000000,
163406159,87.425493,12.171294,3,0.163025,-0.094177,0.201294,-0.961243,0.298330,-0.081806,-0.477609,-0.419175,0.138339,-10.158409,87.678464,14.924607,-10.155445,0.000000,0.000000,
163417286,87.885515,12.175941,3,0.152954,-0.098206,0.200500,-0.962708,0.239225,-0.080090,-0.477805,-0.363836,0.156019,-10.164355,87.861775,14.834757,-10.161968,0.000000,0.000000,
163426819,87.516771,12.175941,3,0.142761,-0.102356,0.199707,-0.963989,0.257120,-0.010895,-0.417510,-0.353944,0.073806,-10.131645,87.972932,14.699092,-10.139770,0.000000,0.000000,
163436501,88.165056,12.171294,3,0.132446,-0.106567,0.198975,-0.965149,0.200394,-0.098766,-0.478068,-0.332605,0.198084,-10.156525,88.131347,14.622417,-10.152036,0.000000,0.000000,
163447305,87.700884,12.175941,3,0.122070,-0.110901,0.198181,-0.966187,0.238342,-0.039921,-0.397852,-0.343155,0.107699,-10.101344,88.251583,14.464889,-10.114927,0.000000,0.000000,
163456707,88.439440,12.175941,3,0.111694,-0.115295,0.197327,-0.967102,0.151140,-0.097336,-0.478231,-0.292455,0.220967,-10.163147,88.403348,14.390569,-10.150226,0.000000,0.000000,
163466385,87.794756,12.171294,3,0.101318,-0.119690,0.196472,-0.967896,0.181395,-0.117749,-0.438421,-0.309447,0.221526,-10.105172,88.489684,14.224336,-10.117244,0.000000,0.000000,
163477423,88.439440,12.175941,3,0.090942,-0.124146,0.195557,-0.968567,0.180823,-0.097929,-0.438289,-0.314273,0.206090,-10.113276,88.641741,14.107071,-10.114339,0.000000,0.000000,
163486987,88.439440,12.175941,3,0.080566,-0.128601,0.194580,-0.969055,0.161121,-0.097357,-0.438354,-0.291113,0.208517,-10.112684,88.758733,13.987475,-10.113128,0.000000,0.000000,
163496752,88.812364,12.166648,3,0.070251,-0.133118,0.193604,-0.969482,0.180251,-0.078109,-0.438156,-0.307064,0.195776,-10.117700,88.899463,13.894714,-10.116475,0.000000,0.000000,
163507566,88.903642,12.171294,3,0.059875,-0.137573,0.192566,-0.969727,0.180251,-0.078109,-0.438156,-0.302575,0.198723,-10.112317,89.049490,13.785828,-10.113431,0.000000,0.000000,
163517019,89.182176,12.166648,3,0.049622,-0.142090,0.191528,-0.969910,0.160615,-0.077405,-0.418300,-0.285534,0.196429,-10.103013,89.190810,13.705329,-10.105805,0.000000,0.000000,
163526770,89.088304,12.171294,3,0.039368,-0.146545,0.190430,-0.969910,0.150257,-0.057166,-0.398278,-0.263176,0.179105,-10.090644,89.315134,13.595407,-10.094707,0.000000,0.000000,
163537859,89.088304,12.171294,3,0.029114,-0.150940,0.189331,-0.969788,0.131062,-0.076547,-0.418398,-0.252800,0.210372,-10.100654,89.445697,13.457954,-10.099061,0.000000,0.000000,
163547376,89.642290,12.171294,3,0.018860,-0.155334,0.188171,-0.969604,0.151271,-0.097071,-0.438387,-0.278073,0.234864,-10.101048,89.590295,13.384077,-10.100515,0.000000,0.000000,
163558347,89.733049,12.175941,3,0.008606,-0.159668,0.187073,-0.969238,0.130490,-0.056727,-0.418265,-0.255559,0.195998,-10.111074,89.748856,13.289233,-10.108245,0.000000,0.000000,
163567634,89.272447,12.171294,3,-0.001648,-0.164001,0.185913,-0.968811,0.111491,-0.075710,-0.378619,-0.221688,0.206493,-10.071703,89.830679,13.141639,-10.081494,0.000000,0.000000,
163577316,90.475359,12.166648,3,-0.011902,-0.168274,0.184753,-0.968201,0.072660,-0.094385,-0.378882,-0.188986,0.229611,-10.073201,90.013055,13.116759,-10.075423,0.000000,0.000000,
163588039,89.918230,12.175941,3,-0.022156,-0.172546,0.183594,-0.967468,0.130556,-0.056594,-0.398343,-0.248814,0.202335,-10.084223,90.144943,12.997976,-10.081865,0.000000,0.000000,
163597516,90.290697,12.166648,3,-0.032288,-0.176697,0.182434,-0.966675,0.131193,-0.076282,-0.378554,-0.241758,0.214523,-10.058284,90.280253,12.919128,-10.064602,0.000000,0.000000,
163607406,90.290697,12.166648,3,-0.042358,-0.180908,0.181213,-0.965759,0.130752,-0.056197,-0.338577,-0.232425,0.179694,-10.030478,90.408434,12.821099,-10.039622,0.000000,0.000000,
163618567,89.826952,12.171294,3,-0.052429,-0.184998,0.180054,-0.964661,0.131062,-0.076547,-0.418398,-0.250854,0.232042,-10.082435,90.500701,12.643292,-10.070963,0.000000,0.000000,
163628003,90.287065,12.175941,3,-0.062439,-0.189026,0.178833,-0.963501,0.112636,-0.115350,-0.378884,-0.208541,0.257198,-10.043080,90.601103,12.524319,-10.050551,0.000000,0.000000,
163637585,90.660051,12.166648,3,-0.072388,-0.193054,0.177673,-0.962280,0.053531,-0.113633,-0.379080,-0.157201,0.255429,-10.065916,90.725733,12.434510,-10.061799,0.000000,0.000000,
163648710,90.747728,12.180587,3,-0.082275,-0.196960,0.176453,-0.960876,0.052321,-0.074126,-0.398737,-0.172692,0.227095,-10.096080,90.865339,12.324674,-10.086895,0.000000,0.000000,
163658172,90.935533,12.171294,3,-0.092041,-0.200806,0.175232,-0.959412,0.112129,-0.095397,-0.358829,-0.206525,0.237637,-10.032499,90.987571,12.237717,-10.047074,0.000000,0.000000,
163667909,90.657457,12.175941,3,-0.101868,-0.204590,0.174011,-0.957825,0.150323,-0.057034,-0.378356,-0.255020,0.212965,-10.047287,91.077778,12.102693,-10.047230,0.000000,0.000000,
163678889,91.398821,12.166648,3,-0.111572,-0.208313,0.172852,-0.956177,0.131765,-0.096102,-0.378686,-0.225195,0.251782,-10.033024,91.237777,12.028601,-10.036830,0.000000,0.000000,
163688308,91.029436,12.166648,3,-0.121277,-0.212036,0.171631,-0.954407,0.072023,-0.074698,-0.398672,-0.186680,0.236686,-10.081604,91.332633,11.910031,-10.069607,0.000000,0.000000,
163698002,91.490129,12.171294,3,-0.130981,-0.215637,0.170410,-0.952515,0.129607,-0.016557,-0.338312,-0.235556,0.165748,-10.023237,91.461202,11.830601,-10.035662,0.000000,0.000000,
163709132,91.768205,12.166648,3,-0.140564,-0.219177,0.169250,-0.950562,0.131324,-0.076017,-0.338710,-0.213616,0.224432,-10.008838,91.618760,11.753659,-10.016025,0.000000,0.000000,
163718466,91.674303,12.171294,3,-0.150146,-0.222595,0.168091,-0.948486,0.091921,-0.074873,-0.338840,-0.182225,0.219731,-10.026616,91.732828,11.666360,-10.023779,0.000000,0.000000,
163728341,91.674303,12.171294,3,-0.159668,-0.225952,0.166931,-0.946350,0.149816,-0.037082,-0.358302,-0.249127,0.205048,-10.016490,91.842497,11.560859,-10.018443,0.000000,0.000000,
163739134,91.768205,12.166648,3,-0.169128,-0.229248,0.165833,-0.944092,0.148892,-0.007484,-0.378025,-0.262163,0.198503,-10.039157,91.960275,11.444161,-10.033607,0.000000,0.000000,
163748613,92.135027,12.175941,3,-0.178589,-0.232483,0.164673,-0.941772,0.150519,-0.056637,-0.318590,-0.218100,0.219298,-9.979714,92.083395,11.369346,-9.994155,0.000000,0.000000,
163759498,92.135027,12.175941,3,-0.187988,-0.235718,0.163574,-0.939331,0.131324,-0.076017,-0.338710,-0.205927,0.241626,-10.001077,92.211017,11.266296,-9.999222,0.000000,0.000000,
163768932,92.228929,12.171294,3,-0.197327,-0.238831,0.162476,-0.936829,0.129607,-0.016557,-0.338312,-0.228243,0.185945,-10.006457,92.318404,11.173923,-10.004519,0.000000,0.000000,
163778529,92.691759,12.166648,3,-0.206604,-0.241943,0.161377,-0.934204,0.149881,-0.036949,-0.338379,-0.232367,0.218500,-9.991195,92.457381,11.120100,-9.994765,0.000000,0.000000,
163789608,92.689165,12.175941,3,-0.215881,-0.244995,0.160339,-0.931519,0.159258,-0.017217,-0.308331,-0.236792,0.191923,-9.967971,92.599976,11.035668,-9.975150,0.000000,0.000000,
163798949,93.246965,12.166648,3,-0.225037,-0.248047,0.159241,-0.928711,0.149309,-0.017129,-0.338247,-0.235575,0.206983,-9.999854,92.758487,11.015508,-9.993234,0.000000,0.000000,
163808807,92.877519,12.166648,3,-0.234070,-0.251038,0.158142,-0.925842,0.109718,-0.005876,-0.308429,-0.200104,0.179627,-9.996465,92.876857,10.930354,-9.995600,0.000000,0.000000,
163819629,92.877519,12.166648,3,-0.243103,-0.253967,0.157043,-0.922913,0.159258,-0.017217,-0.308331,-0.231976,0.200787,-9.960400,92.994620,10.822627,-9.969832,0.000000,0.000000,
163829135,93.340379,12.162001,3,-0.252075,-0.256897,0.155945,-0.919861,0.128913,0.013504,-0.288309,-0.216831,0.161184,-9.965893,93.126899,10.766990,-9.966948,0.000000,0.000000,
163838694,93.058611,12.175941,3,-0.260986,-0.259766,0.154846,-0.916748,0.128243,0.033125,-0.318059,-0.236546,0.161263,-9.995089,93.223476,10.663761,-9.987549,0.000000,0.000000,
163849821,92.968309,12.171294,3,-0.269775,-0.262634,0.153809,-0.913574,0.177529,0.031761,-0.307935,-0.266838,0.182526,-9.947789,93.319502,10.524459,-9.958442,0.000000,0.000000,
163859272,93.337785,12.171294,3,-0.278564,-0.265442,0.152710,-0.910278,0.178673,-0.007879,-0.308200,-0.239863,0.217019,-9.945722,93.420103,10.432535,-9.949130,0.000000,0.000000,
163869119,93.895098,12.162001,3,-0.287292,-0.268250,0.151611,-0.906921,0.148108,0.032884,-0.268189,-0.228450,0.159170,-9.935247,93.563313,10.388147,-9.938967,0.000000,0.000000,
163879914,93.337785,12.171294,3,-0.295959,-0.271057,0.150513,-0.903503,0.129485,-0.006316,-0.288441,-0.201024,0.193693,-9.958586,93.655409,10.255314,-9.953329,0.000000,0.000000,
163889485,94.265093,12.162001,3,-0.304504,-0.273804,0.149353,-0.900024,0.147405,0.052439,-0.307901,-0.253593,0.161831,-9.963828,93.805739,10.228879,-9.961015,0.000000,0.000000,
163899278,93.431688,12.166648,3,-0.312927,-0.276489,0.148193,-0.896484,0.127899,0.053408,-0.248200,-0.209954,0.133756,-9.929048,93.873177,10.089538,-9.937614,0.000000,0.000000,
163910404,93.707231,12.171294,3,-0.321289,-0.279175,0.147034,-0.892883,0.146391,0.092344,-0.267792,-0.260084,0.126134,-9.935114,93.970491,9.960358,-9.935784,0.000000,0.000000,
163919969,93.613329,12.175941,3,-0.329529,-0.281860,0.145874,-0.889221,0.156683,0.071973,-0.307736,-0.273569,0.168149,-9.957993,94.034448,9.824614,-9.952042,0.000000,0.000000,
163929692,94.079820,12.162001,3,-0.337708,-0.284485,0.144592,-0.885498,0.146898,0.072392,-0.287846,-0.252591,0.157267,-9.939168,94.133418,9.733095,-9.942618,0.000000,0.000000,
163940671,94.261461,12.171294,3,-0.345764,-0.287048,0.143372,-0.881775,0.145819,0.112164,-0.267659,-0.272134,0.119068,-9.927074,94.250738,9.638506,-9.931239,0.000000,0.000000,
163950008,93.704637,12.180587,3,-0.353699,-0.289612,0.142090,-0.877991,0.145950,0.112429,-0.227815,-0.250615,0.106720,-9.896767,94.293132,9.484197,-9.906004,0.000000,0.000000,
163959653,94.725939,12.166648,3,-0.361511,-0.292114,0.140808,-0.874146,0.145182,0.131851,-0.287449,-0.294373,0.123036,-9.941777,94.421470,9.437054,-9.932192,0.000000,0.000000,
163970782,94.540148,12.166648,3,-0.369202,-0.294617,0.139526,-0.870300,0.176450,0.071533,-0.287748,-0.265674,0.191899,-9.918553,94.536125,9.339987,-9.922207,0.000000,0.000000,
163980230,94.631487,12.171294,3,-0.376770,-0.296997,0.138245,-0.866455,0.196152,0.070961,-0.287683,-0.276538,0.204382,-9.905505,94.632164,9.257209,-9.909980,0.000000,0.000000,
163989945,94.167528,12.175941,3,-0.384216,-0.299438,0.136902,-0.862549,0.156373,0.092323,-0.227915,-0.241093,0.145841,-9.883551,94.681555,9.108847,-9.890632,0.000000,0.000000,
164000721,94.725939,12.166648,3,-0.391602,-0.301758,0.135559,-0.858643,0.126820,0.093181,-0.228013,-0.233553,0.118977,-9.903343,94.782967,9.007118,-9.899937,0.000000,0.000000,
164010241,94.540148,12.166648,3,-0.398865,-0.304077,0.134155,-0.854675,0.174800,0.131126,-0.267429,-0.300372,0.150319,-9.899448,94.847306,8.885427,-9.899580,0.000000,0.000000,
164021062,95.094927,12.166648,3,-0.406067,-0.306335,0.132690,-0.850708,0.144103,0.171624,-0.267262,-0.320165,0.106350,-9.914132,94.964254,8.806008,-9.910232,0.000000,0.000000,
164030375,95.004106,12.162001,3,-0.413147,-0.308594,0.131226,-0.846680,0.194566,0.130686,-0.247442,-0.299857,0.160295,-9.865508,95.049279,8.718657,-9.877492,0.000000,0.000000,
164040195,95.000475,12.171294,3,-0.420105,-0.310852,0.129761,-0.842651,0.145950,0.112429,-0.227815,-0.257094,0.131343,-9.880249,95.130212,8.616144,-9.879510,0.000000,0.000000,
164051332,94.910692,12.166648,3,-0.426941,-0.313049,0.128235,-0.838623,0.144871,0.152201,-0.207628,-0.273190,0.100066,-9.863420,95.206608,8.481643,-9.867731,0.000000,0.000000,
164060773,95.371050,12.171294,3,-0.433655,-0.315247,0.126770,-0.834534,0.154019,0.171470,-0.247307,-0.314304,0.118267,-9.880730,95.300447,8.406989,-9.877247,0.000000,0.000000,
164070469,95.185228,12.171294,3,-0.440308,-0.317444,0.125183,-0.830444,0.173786,0.171030,-0.227320,-0.306763,0.123125,-9.854440,95.371560,8.298459,-9.860551,0.000000,0.000000,
164081177,95.649767,12.166648,3,-0.446838,-0.319641,0.123596,-0.826355,0.194060,0.150638,-0.227387,-0.302173,0.149940,-9.838807,95.483864,8.224352,-9.844633,0.000000,0.000000,
164090680,95.373644,12.162001,3,-0.453186,-0.321838,0.122009,-0.822266,0.174423,0.151343,-0.207530,-0.281561,0.133998,-9.833675,95.552064,8.118453,-9.836612,0.000000,0.000000,
164100540,96.018785,12.166648,3,-0.459473,-0.323914,0.120361,-0.818176,0.123895,0.192148,-0.247273,-0.314680,0.095867,-9.889873,95.671869,8.073412,-9.875601,0.000000,0.000000,
164111685,95.925371,12.171294,3,-0.465637,-0.326050,0.118713,-0.814148,0.154150,0.171735,-0.207463,-0.284435,0.112081,-9.842057,95.783120,7.992171,-9.851045,0.000000,0.000000,
164121143,96.016191,12.175941,3,-0.471680,-0.328125,0.117004,-0.810059,0.155931,0.112407,-0.187939,-0.231079,0.138730,-9.826227,95.878404,7.925656,-9.832877,0.000000,0.000000,
164130862,95.834001,12.166648,3,-0.477600,-0.330261,0.115234,-0.805908,0.155294,0.132095,-0.207728,-0.252722,0.145868,-9.834603,95.951138,7.825069,-9.834140,0.000000,0.000000,
164141804,96.110124,12.171294,3,-0.483521,-0.332336,0.113464,-0.801819,0.195204,0.110998,-0.227652,-0.254965,0.188917,-9.828801,96.049897,7.735387,-9.830232,0.000000,0.000000,
164151181,96.204088,12.166648,3,-0.489258,-0.334412,0.111633,-0.797729,0.155294,0.132095,-0.207728,-0.246243,0.145688,-9.834176,96.135313,7.660630,-9.833119,0.000000,0.000000,
164161057,95.740068,12.171294,3,-0.494873,-0.336426,0.109802,-0.793640,0.174996,0.131523,-0.207663,-0.252664,0.159478,-9.818646,96.176403,7.519181,-9.822525,0.000000,0.000000,
164172140,95.649767,12.166648,3,-0.500366,-0.338501,0.107910,-0.789551,0.272359,0.168302,-0.207071,-0.307985,0.220446,-9.756600,96.213669,7.351842,-9.774264,0.000000,0.000000,
164181596,95.743700,12.162001,3,-0.505737,-0.340576,0.105957,-0.785522,0.174996,0.131523,-0.207663,-0.253860,0.173548,-9.818486,96.242148,7.205704,-9.806637,0.000000,0.000000,
164191156,96.388872,12.166648,3,-0.511047,-0.342590,0.103943,-0.781433,0.195907,0.091443,-0.187940,-0.208151,0.197294,-9.799585,96.323242,7.128561,-9.801474,0.000000,0.000000,
164202357,95.740068,12.171294,3,-0.516174,-0.344666,0.101929,-0.777405,0.214399,0.130379,-0.207532,-0.257534,0.207055,-9.789458,96.352130,6.953437,-9.792678,0.000000,0.000000,
164211581,96.388872,12.166648,3,-0.521240,-0.346680,0.099854,-0.773376,0.194256,0.151035,-0.167621,-0.255828,0.164607,-9.763940,96.419027,6.867552,-9.771640,0.000000,0.000000,
164221437,96.294908,12.171294,3,-0.526245,-0.348694,0.097778,-0.769348,0.214464,0.130511,-0.187610,-0.241079,0.197241,-9.774996,96.475535,6.757244,-9.774097,0.000000,0.000000,
164232427,96.664476,12.171294,3,-0.531189,-0.350708,0.095642,-0.765320,0.234738,0.110119,-0.187677,-0.228134,0.221077,-9.764163,96.565518,6.671159,-9.766824,0.000000,0.000000,
164241886,96.851885,12.162001,3,-0.536011,-0.352722,0.093506,-0.761292,0.215101,0.110824,-0.167820,-0.210005,0.207259,-9.756410,96.652915,6.611306,-9.759201,0.000000,0.000000,
164251477,96.755327,12.175941,3,-0.540771,-0.354736,0.091309,-0.757202,0.214529,0.130643,-0.167688,-0.228954,0.197256,-9.751132,96.724708,6.529317,-9.753294,0.000000,0.000000,
164262592,97.219927,12.171294,3,-0.545471,-0.356750,0.089111,-0.753174,0.253360,0.149319,-0.167425,-0.242485,0.221509,-9.724418,96.839422,6.476780,-9.732155,0.000000,0.000000,
164271961,97.034075,12.171294,3,-0.550049,-0.358826,0.086853,-0.749084,0.175126,0.131788,-0.167819,-0.219471,0.174546,-9.773460,96.916480,6.407237,-9.762393,0.000000,0.000000,
164281818,97.222521,12.162001,3,-0.554626,-0.360901,0.084534,-0.744995,0.234738,0.110119,-0.187677,-0.210146,0.238603,-9.760996,97.005555,6.345461,-9.761370,0.000000,0.000000,
164292484,97.219927,12.171294,3,-0.559082,-0.362915,0.082214,-0.740906,0.215101,0.110824,-0.167820,-0.201893,0.215762,-9.755667,97.091180,6.265491,-9.757195,0.000000,0.000000,
164302083,97.125444,12.175941,3,-0.563477,-0.364990,0.079834,-0.736816,0.193684,0.170855,-0.167489,-0.242739,0.178640,-9.744882,97.153831,6.175823,-9.748181,0.000000,0.000000,
164311766,97.034075,12.171294,3,-0.567810,-0.367065,0.077454,-0.732727,0.213516,0.170548,-0.127579,-0.229027,0.175568,-9.702279,97.202853,6.068406,-9.714578,0.000000,0.000000,
164322856,97.219927,12.171294,3,-0.572021,-0.369202,0.075012,-0.728577,0.271787,0.188122,-0.206939,-0.280426,0.262876,-9.719537,97.271027,5.962533,-9.718209,0.000000,0.000000,
164332212,97.125444,12.175941,3,-0.576172,-0.371277,0.072571,-0.724487,0.271918,0.188387,-0.167095,-0.259964,0.238053,-9.683948,97.313822,5.855464,-9.693128,0.000000,0.000000,
164343270,97.125444,12.175941,3,-0.580261,-0.373413,0.070129,-0.720337,0.234231,0.130071,-0.167623,-0.209509,0.229303,-9.728132,97.361707,5.726715,-9.718753,0.000000,0.000000,
164352515,97.034075,12.171294,3,-0.584290,-0.375549,0.067688,-0.716187,0.213320,0.170151,-0.187345,-0.247528,0.215329,-9.747265,97.385933,5.599428,-9.739625,0.000000,0.000000,
164362250,97.222521,12.162001,3,-0.588257,-0.377686,0.065186,-0.712036,0.212748,0.189971,-0.187213,-0.264316,0.211633,-9.730446,97.425890,5.486303,-9.732905,0.000000,0.000000,
164373033,97.498155,12.166648,3,-0.592224,-0.379822,0.062683,-0.707886,0.215297,0.111221,-0.108054,-0.151853,0.196811,-9.709360,97.490721,5.389716,-9.715669,0.000000,0.000000,
164382602,97.494524,12.175941,3,-0.596069,-0.382019,0.060120,-0.703674,0.291333,0.197725,-0.166963,-0.255998,0.265862,-9.664929,97.542182,5.297674,-9.678525,0.000000,0.000000,
164392265,97.680376,12.175941,3,-0.599854,-0.384216,0.057495,-0.699463,0.293401,0.128488,-0.147505,-0.176494,0.279892,-9.673196,97.604837,5.219752,-9.674624,0.000000,0.000000,
164403364,97.680376,12.175941,3,-0.603577,-0.386414,0.054871,-0.695251,0.252282,0.189092,-0.147238,-0.230114,0.231205,-9.669039,97.668694,5.120907,-9.670536,0.000000,0.000000,
164412712,97.959123,12.171294,3,-0.607239,-0.388611,0.052246,-0.691040,0.312400,0.147471,-0.187151,-0.205102,0.320151,-9.683360,97.741215,5.063258,-9.679923,0.000000,0.000000,
164422588,97.961717,12.162001,3,-0.610840,-0.390869,0.049561,-0.686768,0.331529,0.166718,-0.186953,-0.221348,0.330367,-9.660584,97.809763,4.992651,-9.665766,0.000000,0.000000,
164433396,97.959123,12.171294,3,-0.614380,-0.393188,0.046875,-0.682495,0.311100,0.197285,-0.146976,-0.221847,0.287853,-9.634368,97.876051,4.905293,-9.642781,0.000000,0.000000,
164443033,98.237383,12.166648,3,-0.617859,-0.395508,0.044128,-0.678162,0.232515,0.189531,-0.167226,-0.232560,0.237080,-9.696362,97.954067,4.852692,-9.682005,0.000000,0.000000,
164452774,98.422228,12.166648,3,-0.621277,-0.397827,0.041321,-0.673828,0.251930,0.198869,-0.167094,-0.228581,0.245518,-9.677549,98.041257,4.811155,-9.678743,0.000000,0.000000,
164463917,98.328264,12.171294,3,-0.624634,-0.400146,0.038574,-0.669495,0.310970,0.197020,-0.186820,-0.231571,0.311276,-9.651785,98.119050,4.735840,-9.659009,0.000000,0.000000,
164473452,97.959123,12.171294,3,-0.627991,-0.402527,0.035767,-0.665100,0.232449,0.189399,-0.187148,-0.228076,0.250270,-9.707362,98.149945,4.625129,-9.694406,0.000000,0.000000,
164483196,98.049974,12.175941,3,-0.631226,-0.404907,0.032898,-0.660706,0.232229,0.199441,-0.167159,-0.230322,0.242406,-9.686052,98.185926,4.519469,-9.688290,0.000000,0.000000,
164494170,98.143938,12.171294,3,-0.634399,-0.407288,0.030029,-0.656311,0.271566,0.198165,-0.186951,-0.223090,0.287119,-9.673183,98.231314,4.408586,-9.677231,0.000000,0.000000,
164503494,98.422228,12.166648,3,-0.637573,-0.409668,0.027161,-0.651855,0.233724,0.150024,-0.147568,-0.170642,0.248113,-9.691148,98.288489,4.339869,-9.687419,0.000000,0.000000,
164513211,97.589006,12.171294,3,-0.640625,-0.412109,0.024231,-0.647400,0.271853,0.188255,-0.187017,-0.207872,0.294734,-9.675564,98.269873,4.167069,-9.678741,0.000000,0.000000,
164524392,98.237383,12.166648,3,-0.643616,-0.414612,0.021301,-0.642944,0.213892,0.150331,-0.187478,-0.185314,0.254338,-9.722574,98.313050,4.054729,-9.710829,0.000000,0.000000,
164533873,98.513597,12.171294,3,-0.646545,-0.417114,0.018311,-0.638489,0.291685,0.187947,-0.147107,-0.174283,0.288715,-9.635094,98.368390,3.986147,-9.655387,0.000000,0.000000,
164543501,98.328264,12.171294,3,-0.649353,-0.419678,0.015320,-0.633972,0.331088,0.186803,-0.146977,-0.166489,0.320032,-9.611241,98.402863,3.889086,-9.623070,0.000000,0.000000,
164554307,98.698412,12.171294,3,-0.652100,-0.422302,0.012329,-0.629517,0.311893,0.167423,-0.167097,-0.164638,0.319271,-9.644211,98.469834,3.818088,-9.638546,0.000000,0.000000,
164563763,98.237383,12.166648,3,-0.654724,-0.424927,0.009338,-0.625061,0.291685,0.187947,-0.147107,-0.165708,0.298455,-9.631357,98.485441,3.700726,-9.633284,0.000000,0.000000,
164573430,98.513597,12.171294,3,-0.657349,-0.427551,0.006287,-0.620544,0.271346,0.208207,-0.166962,-0.199003,0.289535,-9.644948,98.523192,3.610656,-9.641822,0.000000,0.000000,
164584529,99.067552,12.171294,3,-0.659851,-0.430237,0.003174,-0.616028,0.310046,0.226618,-0.206543,-0.221214,0.342924,-9.629128,98.609648,3.564825,-9.632529,0.000000,0.000000,
164594006,98.607042,12.166648,3,-0.662231,-0.432922,0.000061,-0.611572,0.290034,0.247540,-0.126788,-0.195217,0.279501,-9.586642,98.642778,3.473693,-9.598937,0.000000,0.000000,
164603858,98.513597,12.171294,3,-0.664551,-0.435669,-0.003052,-0.607056,0.328800,0.266083,-0.146447,-0.205948,0.322710,-9.560513,98.665396,3.364959,-9.570809,0.000000,0.000000,
164614669,99.067552,12.171294,3,-0.666809,-0.438416,-0.006165,-0.602600,0.288187,0.306735,-0.166235,-0.256841,0.291746,-9.569339,98.735929,3.306706,-9.569733,0.000000,0.000000,
164624023,98.792375,12.166648,3,-0.669006,-0.441162,-0.009338,-0.598083,0.346785,0.324971,-0.145985,-0.239401,0.327564,-9.510617,98.771318,3.224148,-9.526457,0.000000,0.000000,
164633801,98.607042,12.166648,3,-0.671143,-0.443909,-0.012512,-0.593567,0.327018,0.325410,-0.165972,-0.251163,0.325115,-9.528952,98.788226,3.112505,-9.528283,0.000000,0.000000,
164644902,99.717088,12.166648,3,-0.673279,-0.446655,-0.015686,-0.588989,0.366993,0.304446,-0.165974,-0.217863,0.360729,-9.519401,98.902353,3.111038,-9.521781,0.000000,0.000000,
164654387,99.532243,12.166648,3,-0.675354,-0.449463,-0.018860,-0.584473,0.307316,0.325982,-0.166037,-0.247898,0.313418,-9.535570,98.985825,3.091901,-9.531875,0.000000,0.000000,
164665368,99.255510,12.162001,3,-0.677307,-0.452209,-0.022095,-0.579895,0.364640,0.383594,-0.185366,-0.277210,0.374724,-9.476932,99.042505,3.018191,-9.491654,0.000000,0.000000,
164674629,99.622576,12.171294,3,-0.679199,-0.455017,-0.025330,-0.575317,0.327018,0.325410,-0.165972,-0.230780,0.339165,-9.522948,99.120161,2.995818,-9.514562,0.000000,0.000000,
164684347,99.161516,12.166648,3,-0.681030,-0.457825,-0.028564,-0.570801,0.325236,0.384738,-0.185497,-0.277125,0.340873,-9.493771,99.152394,2.908216,-9.499342,0.000000,0.000000,
164694859,99.622576,12.171294,3,-0.682800,-0.460693,-0.031799,-0.566223,0.325171,0.384605,-0.205419,-0.281446,0.363287,-9.504594,99.223004,2.861126,-9.503187,0.000000,0.000000,
164704440,99.717088,12.166648,3,-0.684387,-0.463562,-0.035034,-0.561707,0.307186,0.325718,-0.205881,-0.243404,0.349110,-9.545622,99.292602,2.825394,-9.534251,0.000000,0.000000,
164714202,99.252916,12.171294,3,-0.685791,-0.466431,-0.038208,-0.557373,0.365277,0.363906,-0.165577,-0.221432,0.373969,-9.476602,99.316314,2.728425,-9.492049,0.000000,0.000000,
164725313,99.343767,12.175941,3,-0.687012,-0.469360,-0.041321,-0.553101,0.305470,0.385177,-0.205484,-0.278192,0.349202,-9.507424,99.348410,2.625871,-9.503304,0.000000,0.000000,
164734836,99.437731,12.171294,3,-0.688110,-0.472351,-0.044434,-0.548950,0.325171,0.384605,-0.205419,-0.265194,0.367419,-9.495372,99.380698,2.545556,-9.497497,0.000000,0.000000,
164744654,99.437731,12.171294,3,-0.689087,-0.475342,-0.047485,-0.544922,0.307251,0.325850,-0.185959,-0.212692,0.348111,-9.532579,99.410149,2.458386,-9.523179,0.000000,0.000000,
164755734,99.252916,12.171294,3,-0.689941,-0.478394,-0.050598,-0.540894,0.374997,0.363355,-0.205388,-0.216098,0.402470,-9.484744,99.423231,2.335611,-9.495043,0.000000,0.000000,
164765164,99.808458,12.171294,3,-0.690735,-0.481445,-0.053711,-0.536865,0.343443,0.433583,-0.205023,-0.279163,0.378427,-9.441479,99.478115,2.290270,-9.455831,0.000000,0.000000,
164774899,99.622576,12.171294,3,-0.691467,-0.484497,-0.056824,-0.532837,0.306679,0.345670,-0.185827,-0.212004,0.339505,-9.507915,99.512421,2.213993,-9.493959,0.000000,0.000000,
164785961,99.528612,12.175941,3,-0.692017,-0.487610,-0.059937,-0.528931,0.305976,0.365225,-0.225539,-0.244493,0.369193,-9.517699,99.537727,2.110536,-9.511338,0.000000,0.000000,
164795445,99.437731,12.171294,3,-0.692505,-0.490723,-0.063049,-0.525024,0.344301,0.403853,-0.205221,-0.237134,0.386065,-9.453735,99.548682,2.009559,-9.469170,0.000000,0.000000,
164805020,99.532243,12.166648,3,-0.692810,-0.493896,-0.066162,-0.521240,0.365081,0.363509,-0.225343,-0.213073,0.410778,-9.482572,99.566070,1.916909,-9.478981,0.000000,0.000000,
164816116,99.622576,12.171294,3,-0.693054,-0.497070,-0.069275,-0.517456,0.373502,0.412773,-0.224979,-0.236414,0.418345,-9.435690,99.591639,1.818539,-9.447289,0.000000,0.000000,
164825374,99.346361,12.166648,3,-0.693176,-0.500305,-0.072327,-0.513733,0.326315,0.344966,-0.205684,-0.190835,0.376648,-9.500776,99.586885,1.702768,-9.486444,0.000000,0.000000,
164835235,99.343767,12.175941,3,-0.693237,-0.503540,-0.075439,-0.510071,0.395140,0.342698,-0.245299,-0.181671,0.452523,-9.494814,99.582249,1.581791,-9.492571,0.000000,0.000000,
164846252,99.622576,12.171294,3,-0.693176,-0.506836,-0.078552,-0.506409,0.414400,0.362211,-0.205257,-0.149566,0.442363,-9.446331,99.602585,1.482235,-9.458721,0.000000,0.000000,
164855718,99.901415,12.166648,3,-0.693054,-0.510132,-0.081726,-0.502747,0.363872,0.403016,-0.245000,-0.220301,0.432755,-9.452725,99.642001,1.426604,-9.454332,0.000000,0.000000,
164865333,99.808458,12.171294,3,-0.692932,-0.513428,-0.084961,-0.499023,0.324534,0.404293,-0.225209,-0.230353,0.380805,-9.449998,99.669636,1.354493,-9.451159,0.000000,0.000000,
164876452,99.528612,12.175941,3,-0.692688,-0.516785,-0.088196,-0.495361,0.363937,0.403149,-0.225078,-0.202067,0.412548,-9.432678,99.671942,1.233775,-9.437630,0.000000,0.000000,
164885797,99.811052,12.162001,3,-0.692322,-0.520142,-0.091431,-0.491760,0.345379,0.364081,-0.225408,-0.180179,0.401128,-9.470233,99.695069,1.161022,-9.461497,0.000000,0.000000,
164895659,99.717088,12.166648,3,-0.691833,-0.523499,-0.094604,-0.488220,0.343377,0.433451,-0.224945,-0.217704,0.400356,-9.405905,99.707963,1.070736,-9.420801,0.000000,0.000000,
164906438,99.808458,12.171294,3,-0.691223,-0.526917,-0.097717,-0.484802,0.345952,0.344261,-0.225540,-0.160313,0.403375,-9.483488,99.727625,0.979823,-9.466691,0.000000,0.000000,
164915954,99.717088,12.166648,3,-0.690430,-0.530334,-0.100708,-0.481567,0.343443,0.433583,-0.205023,-0.195983,0.387054,-9.400044,99.735616,0.889199,-9.417902,0.000000,0.000000,
164926839,100.086778,12.166648,3,-0.689514,-0.533752,-0.103638,-0.478455,0.324338,0.403896,-0.284975,-0.230658,0.420419,-9.459518,99.775058,0.825761,-9.448367,0.000000,0.000000,
164936323,99.437731,12.171294,3,-0.688477,-0.537231,-0.106506,-0.475342,0.324248,0.414203,-0.225142,-0.203736,0.378775,-9.421568,99.753329,0.698190,-9.428749,0.000000,0.000000,
164945989,99.717088,12.166648,3,-0.687439,-0.540771,-0.109436,-0.472290,0.363013,0.432746,-0.244801,-0.195438,0.420832,-9.397684,99.756513,0.603268,-9.406007,0.000000,0.000000,
164957014,99.901415,12.166648,3,-0.686279,-0.544250,-0.112305,-0.469177,0.373371,0.412508,-0.264823,-0.187264,0.440949,-9.408423,99.775102,0.515820,-9.407776,0.000000,0.000000,
164966297,99.901415,12.166648,3,-0.685059,-0.547791,-0.115173,-0.466187,0.372227,0.452148,-0.264558,-0.208688,0.439218,-9.382147,99.790394,0.443043,-9.389014,0.000000,0.000000,
164976130,100.271623,12.166648,3,-0.683716,-0.551392,-0.117981,-0.463257,0.373436,0.412640,-0.244901,-0.167754,0.433093,-9.401183,99.835793,0.404735,-9.397923,0.000000,0.000000,
164986991,99.901415,12.166648,3,-0.682190,-0.554932,-0.120728,-0.460510,0.360153,0.531846,-0.244139,-0.229543,0.415357,-9.299054,99.845306,0.311079,-9.325546,0.000000,0.000000,
164996469,99.898302,12.175941,3,-0.680664,-0.558533,-0.123474,-0.457703,0.371655,0.471968,-0.264426,-0.197134,0.431918,-9.348951,99.852409,0.228456,-9.342680,0.000000,0.000000,
165006257,99.626207,12.162001,3,-0.679016,-0.562134,-0.126221,-0.454956,0.360660,0.511894,-0.264194,-0.218477,0.421279,-9.316675,99.834695,0.111816,-9.323643,0.000000,0.000000,
165017382,100.086778,12.166648,3,-0.677307,-0.565735,-0.128967,-0.452271,0.410551,0.490776,-0.244241,-0.167350,0.447356,-9.303464,99.857124,0.036609,-9.308871,0.000000,0.000000,
165026702,100.086778,12.166648,3,-0.675537,-0.569336,-0.131653,-0.449646,0.340893,0.512333,-0.284181,-0.231158,0.415027,-9.319091,99.876893,-0.024228,-9.316353,0.000000,0.000000,
165036460,100.547868,12.171294,3,-0.673584,-0.572998,-0.134216,-0.447144,0.392435,0.431623,-0.284547,-0.168989,0.456504,-9.370758,99.934070,-0.040147,-9.356180,0.000000,0.000000,
165047279,99.992784,12.171294,3,-0.671509,-0.576660,-0.136658,-0.444763,0.370380,0.511343,-0.304005,-0.224131,0.441538,-9.307354,99.938159,-0.134265,-9.320437,0.000000,0.000000,
165056797,99.901415,12.166648,3,-0.669373,-0.580383,-0.139099,-0.442444,0.391291,0.471263,-0.284283,-0.181305,0.449555,-9.330021,99.933286,-0.227224,-9.327453,0.000000,0.000000,
165066441,100.177660,12.171294,3,-0.667114,-0.584167,-0.141541,-0.440186,0.341972,0.472561,-0.304368,-0.217750,0.424103,-9.348323,99.951726,-0.289889,-9.342731,0.000000,0.000000,
165077497,99.252916,12.171294,3,-0.664734,-0.587891,-0.143921,-0.437927,0.371524,0.471703,-0.304270,-0.193603,0.444446,-9.337102,99.887657,-0.471481,-9.338610,0.000000,0.000000,
165086921,99.437731,12.171294,3,-0.662292,-0.591675,-0.146301,-0.435730,0.391798,0.451311,-0.304337,-0.170698,0.461238,-9.339574,99.843960,-0.610394,-9.339315,0.000000,0.000000,
165096835,99.713976,12.175941,3,-0.659668,-0.595520,-0.148499,-0.433716,0.360790,0.512158,-0.224350,-0.148152,0.370935,-9.266394,99.826246,-0.716885,-9.285933,0.000000,0.000000,
165107912,99.713976,12.175941,3,-0.656921,-0.599426,-0.150635,-0.431824,0.361739,0.472121,-0.284381,-0.172404,0.415164,-9.313909,99.808040,-0.832662,-9.306413,0.000000,0.000000,
165117295,99.626207,12.162001,3,-0.653992,-0.603394,-0.152649,-0.429993,0.362245,0.452169,-0.304435,-0.174477,0.420551,-9.334398,99.784110,-0.940869,-9.326899,0.000000,0.000000,
165126874,99.901415,12.166648,3,-0.650940,-0.607361,-0.154541,-0.428345,0.372096,0.451883,-0.304402,-0.162397,0.435138,-9.329535,99.784785,-1.017022,-9.328829,0.000000,0.000000,
165138001,100.177660,12.171294,3,-0.647766,-0.611389,-0.156372,-0.426758,0.340255,0.532021,-0.303971,-0.211020,0.389885,-9.259685,99.806806,-1.075996,-9.278212,0.000000,0.000000,
165147489,99.437731,12.171294,3,-0.644470,-0.615479,-0.158020,-0.425293,0.371589,0.471835,-0.284348,-0.148796,0.406249,-9.294021,99.764303,-1.205985,-9.289785,0.000000,0.000000,
165158389,99.528612,12.175941,3,-0.641052,-0.619568,-0.159607,-0.423889,0.372570,0.431864,-0.334418,-0.167917,0.438479,-9.336615,99.730241,-1.334295,-9.324067,0.000000,0.000000,
165167649,99.622576,12.171294,3,-0.637512,-0.623718,-0.161133,-0.422546,0.432410,0.410659,-0.284549,-0.085529,0.449587,-9.326176,99.708185,-1.432871,-9.325611,0.000000,0.000000,
165177415,99.437731,12.171294,3,-0.633850,-0.627930,-0.162537,-0.421326,0.412545,0.410900,-0.334420,-0.131705,0.467371,-9.330607,99.670418,-1.554454,-9.329268,0.000000,0.000000,
165188308,100.083147,12.175941,3,-0.630127,-0.632141,-0.163879,-0.420105,0.450902,0.449595,-0.304141,-0.098867,0.464556,-9.280981,99.688563,-1.609193,-9.293920,0.000000,0.000000,
165197650,99.532243,12.166648,3,-0.626343,-0.636353,-0.165222,-0.418823,0.490371,0.448583,-0.284088,-0.050387,0.474312,-9.256936,99.659632,-1.713350,-9.266846,0.000000,0.000000,
165207290,99.252916,12.171294,3,-0.622498,-0.640625,-0.166504,-0.417603,0.468888,0.508482,-0.303678,-0.098235,0.457418,-9.207828,99.607631,-1.847848,-9.223642,0.000000,0.000000,
165218488,99.532243,12.166648,3,-0.618652,-0.644836,-0.167725,-0.416321,0.430024,0.489740,-0.313903,-0.117279,0.427112,-9.236289,99.579854,-1.959721,-9.232900,0.000000,0.000000,
165227966,99.713976,12.175941,3,-0.614685,-0.649109,-0.168945,-0.415039,0.448581,0.528808,-0.313572,-0.113520,0.437580,-9.189532,99.572451,-2.031620,-9.201153,0.000000,0.000000,
165237710,98.974626,12.175941,3,-0.610657,-0.653381,-0.170105,-0.413818,0.489701,0.468204,-0.313839,-0.067706,0.469630,-9.223342,99.500656,-2.188817,-9.217396,0.000000,0.000000,
165248506,99.622576,12.171294,3,-0.606567,-0.657715,-0.171143,-0.412598,0.526816,0.546340,-0.313179,-0.061474,0.473345,-9.129805,99.487017,-2.273711,-9.153275,0.000000,0.000000,
165257868,99.346361,12.166648,3,-0.602417,-0.661987,-0.172058,-0.411438,0.546615,0.545966,-0.283230,-0.026415,0.467729,-9.115420,99.453194,-2.374940,-9.125564,0.000000,0.000000,
165267682,99.252916,12.171294,3,-0.598145,-0.666321,-0.172913,-0.410339,0.447372,0.568316,-0.333230,-0.126886,0.412950,-9.129395,99.412183,-2.487041,-9.128368,0.000000,0.000000,
165278734,99.528612,12.175941,3,-0.593811,-0.670654,-0.173767,-0.409180,0.486775,0.567172,-0.333099,-0.094604,0.438000,-9.113054,99.394187,-2.574703,-9.117157,0.000000,0.000000,
165288232,99.343767,12.175941,3,-0.589539,-0.674927,-0.174622,-0.407959,0.525132,0.605866,-0.302820,-0.055717,0.424290,-9.063952,99.364972,-2.666481,-9.078208,0.000000,0.000000,
165298031,99.532243,12.166648,3,-0.585266,-0.679199,-0.175537,-0.406616,0.507114,0.546912,-0.313244,-0.056259,0.424729,-9.116056,99.352831,-2.736977,-9.105914,0.000000,0.000000,
165308952,99.161516,12.166648,3,-0.580933,-0.683533,-0.176453,-0.405212,0.545373,0.585408,-0.312849,-0.036379,0.437977,-9.068200,99.305887,-2.857518,-9.078305,0.000000,0.000000,
165318285,100.086778,12.166648,3,-0.576538,-0.687805,-0.177307,-0.403870,0.564944,0.584571,-0.352627,-0.057228,0.478205,-9.055008,99.346239,-2.853623,-9.061251,0.000000,0.000000,
165328046,99.532243,12.166648,3,-0.572083,-0.692139,-0.178101,-0.402527,0.595232,0.564224,-0.302857,0.016432,0.462821,-9.059495,99.333989,-2.921133,-9.059966,0.000000,0.000000,
165339124,99.437731,12.171294,3,-0.567505,-0.696411,-0.178833,-0.401123,0.632821,0.622341,-0.332212,0.007838,0.484157,-8.976706,99.310033,-3.008965,-8.999015,0.000000,0.000000,
165348668,99.343767,12.175941,3,-0.562988,-0.700745,-0.179626,-0.399719,0.652236,0.631679,-0.332080,0.017216,0.484684,-8.963476,99.283822,-3.090682,-8.972998,0.000000,0.000000,
165358357,99.067552,12.171294,3,-0.558350,-0.705017,-0.180420,-0.398254,0.611624,0.672330,-0.351868,-0.018798,0.445825,-8.938422,99.234804,-3.201656,-8.947687,0.000000,0.000000,
165369292,99.161516,12.166648,3,-0.553711,-0.709351,-0.181152,-0.396790,0.591154,0.692325,-0.411567,-0.077240,0.458400,-8.915416,99.192936,-3.307390,-8.924063,0.000000,0.000000,
165378621,99.349993,12.157354,3,-0.549072,-0.713623,-0.181946,-0.395203,0.632469,0.632118,-0.352068,0.013905,0.455109,-8.954934,99.175249,-3.373162,-8.946662,0.000000,0.000000,
165388517,99.437731,12.171294,3,-0.544373,-0.717896,-0.182617,-0.393616,0.650324,0.690741,-0.391449,-0.012114,0.467257,-8.885201,99.164068,-3.431572,-8.901669,0.000000,0.000000,
165399420,99.343767,12.175941,3,-0.539551,-0.722229,-0.183105,-0.392151,0.667803,0.769581,-0.370932,0.015718,0.430705,-8.806011,99.141643,-3.507424,-8.831643,0.000000,0.000000,
165408909,99.067552,12.171294,3,-0.534546,-0.726562,-0.183350,-0.390808,0.630181,0.711398,-0.351538,0.017833,0.404568,-8.868160,99.101564,-3.599970,-8.858375,0.000000,0.000000,
165419870,98.698412,12.171294,3,-0.529541,-0.730896,-0.183472,-0.389526,0.628334,0.770593,-0.390985,-0.010305,0.393397,-8.805679,99.026755,-3.741897,-8.819799,0.000000,0.000000,
165429336,99.811052,12.162001,3,-0.524353,-0.735291,-0.183411,-0.388306,0.589634,0.752182,-0.351404,-0.003615,0.335728,-8.833942,99.058704,-3.736550,-8.830153,0.000000,0.000000,
165438935,98.977220,12.166648,3,-0.519043,-0.739685,-0.183167,-0.387207,0.609270,0.751478,-0.371261,0.003952,0.349272,-8.827878,99.015400,-3.830481,-8.828488,0.000000,0.000000,
165450077,98.607042,12.166648,3,-0.513672,-0.744080,-0.182739,-0.386108,0.592363,0.652818,-0.391910,-0.007376,0.382539,-8.914796,98.936904,-3.975663,-8.891670,0.000000,0.000000,
165459301,98.604448,12.175941,3,-0.508179,-0.748535,-0.182129,-0.385071,0.672028,0.620799,-0.391847,0.057849,0.435242,-8.901654,98.871139,-4.095481,-8.898979,0.000000,0.000000,
165469057,99.161516,12.166648,3,-0.502563,-0.752991,-0.181396,-0.384033,0.673679,0.561207,-0.412166,0.055090,0.456099,-8.944508,98.855798,-4.150057,-8.932309,0.000000,0.000000,
165479981,98.513597,12.171294,3,-0.496948,-0.757507,-0.180603,-0.382935,0.597226,0.484348,-0.393035,0.032118,0.425056,-9.038918,98.780386,-4.287190,-9.010352,0.000000,0.000000,
165489480,98.422228,12.166648,3,-0.491394,-0.761963,-0.179810,-0.381653,0.617500,0.463956,-0.393102,0.049099,0.430379,-9.047956,98.708330,-4.413670,-9.037880,0.000000,0.000000,
165499191,98.792375,12.166648,3,-0.485779,-0.766418,-0.179077,-0.380188,0.588585,0.445127,-0.373411,0.058360,0.403713,-9.073526,98.672287,-4.492322,-9.063975,0.000000,0.000000,
165510322,98.701006,12.162001,3,-0.480225,-0.770813,-0.178406,-0.378662,0.616290,0.503464,-0.412760,0.045475,0.405095,-9.000810,98.624206,-4.589310,-9.017735,0.000000,0.000000,
165519533,98.234270,12.175941,3,-0.474731,-0.775208,-0.177734,-0.376953,0.596213,0.524253,-0.352926,0.077023,0.344118,-9.002183,98.547885,-4.716405,-9.006350,0.000000,0.000000,
165529374,98.049974,12.175941,3,-0.469177,-0.779602,-0.177063,-0.375122,0.586803,0.504454,-0.392936,0.048283,0.359041,-9.003949,98.458105,-4.861004,-9.004592,0.000000,0.000000,
165540211,97.959123,12.171294,3,-0.463623,-0.783936,-0.176392,-0.373291,0.598305,0.444576,-0.413222,0.051942,0.400385,-9.046925,98.361837,-5.015057,-9.035582,0.000000,0.000000,
165549706,98.422228,12.166648,3,-0.458069,-0.788330,-0.175598,-0.371338,0.677683,0.422468,-0.413093,0.111349,0.449402,-9.028261,98.319025,-5.093952,-9.030223,0.000000,0.000000,
165559463,98.053087,12.166648,3,-0.452393,-0.792664,-0.174683,-0.369446,0.677111,0.442288,-0.412961,0.116337,0.422988,-9.000218,98.245968,-5.211681,-9.008257,0.000000,0.000000,
165570572,97.959123,12.171294,3,-0.446777,-0.796997,-0.173828,-0.367371,0.674627,0.521170,-0.472197,0.077825,0.407574,-8.911324,98.162768,-5.342904,-8.937297,0.000000,0.000000,
165579950,98.331377,12.162001,3,-0.441223,-0.801270,-0.173218,-0.365051,0.657344,0.442727,-0.432948,0.105331,0.406664,-8.995523,98.126823,-5.408189,-8.979921,0.000000,0.000000,
165589781,98.328264,12.171294,3,-0.435852,-0.805420,-0.172852,-0.362549,0.657148,0.442330,-0.492714,0.070815,0.431721,-8.971042,98.090595,-5.473708,-8.973421,0.000000,0.000000,
165600425,98.143938,12.171294,3,-0.430664,-0.809509,-0.172791,-0.359741,0.548414,0.465694,-0.433175,0.043539,0.304746,-9.019922,98.036423,-5.563712,-9.007462,0.000000,0.000000,
165610023,97.494524,12.175941,3,-0.425537,-0.813477,-0.173035,-0.356628,0.619813,0.374237,-0.473386,0.075942,0.413082,-9.039895,97.935838,-5.711692,-9.031205,0.000000,0.000000,
165619665,97.585893,12.180587,3,-0.420532,-0.817383,-0.173523,-0.353394,0.551364,0.356287,-0.493669,0.015087,0.394482,-9.074524,97.850176,-5.838559,-9.062916,0.000000,0.000000,
165630779,97.589006,12.171294,3,-0.415710,-0.821228,-0.174377,-0.349854,0.574057,0.256880,-0.454422,0.067938,0.438378,-9.161797,97.762183,-5.969631,-9.135302,0.000000,0.000000,
165640221,97.498155,12.166648,3,-0.410950,-0.824890,-0.175537,-0.346130,0.515459,0.238644,-0.474673,0.022349,0.421261,-9.189791,97.682611,-6.086303,-9.175191,0.000000,0.000000,
165650072,97.773821,12.171294,3,-0.406372,-0.828552,-0.177063,-0.342163,0.516889,0.189094,-0.475004,0.033860,0.448543,-9.225845,97.630071,-6.166919,-9.212272,0.000000,0.000000,
165660879,96.940111,12.175941,3,-0.401855,-0.832031,-0.178894,-0.337891,0.439382,0.141567,-0.515440,-0.053321,0.450627,-9.269672,97.503335,-6.344622,-9.254292,0.000000,0.000000,
165670507,97.404192,12.171294,3,-0.397522,-0.835449,-0.181213,-0.333374,0.459721,0.121308,-0.495585,-0.013441,0.459312,-9.278043,97.433258,-6.445171,-9.271679,0.000000,0.000000,
165681470,96.940111,12.175941,3,-0.393311,-0.838745,-0.183960,-0.328491,0.420253,0.122320,-0.515638,-0.051939,0.441824,-9.285257,97.319437,-6.602527,-9.281619,0.000000,0.000000,
165690913,96.849291,12.171294,3,-0.389282,-0.841919,-0.187195,-0.323364,0.372682,0.064224,-0.526159,-0.092247,0.450679,-9.344958,97.216042,-6.744163,-9.327987,0.000000,0.000000,
165700623,96.940111,12.175941,3,-0.385376,-0.844971,-0.190918,-0.317932,0.351297,0.124322,-0.515866,-0.084825,0.394181,-9.307053,97.126306,-6.865675,-9.312662,0.000000,0.000000,
165711658,97.034075,12.171294,3,-0.381592,-0.847839,-0.195129,-0.312256,0.351362,0.124454,-0.495944,-0.073009,0.387257,-9.317401,97.042010,-6.978869,-9.316131,0.000000,0.000000,
165721112,97.404192,12.171294,3,-0.377930,-0.850586,-0.199646,-0.306335,0.352408,0.084616,-0.526092,-0.088519,0.421833,-9.328725,97.006908,-7.025979,-9.325350,0.000000,0.000000,
165730856,96.664476,12.171294,3,-0.374329,-0.853149,-0.204529,-0.300232,0.330451,0.164534,-0.515667,-0.083686,0.351993,-9.271118,96.908460,-7.154943,-9.285650,0.000000,0.000000,
165741746,96.940111,12.175941,3,-0.370850,-0.855591,-0.209656,-0.294006,0.350725,0.144142,-0.515734,-0.055773,0.379349,-9.283209,96.832726,-7.252477,-9.283863,0.000000,0.000000,
165751106,97.128038,12.166648,3,-0.367432,-0.857849,-0.215149,-0.287659,0.330991,0.144648,-0.525760,-0.069871,0.370279,-9.277827,96.789939,-7.305860,-9.279445,0.000000,0.000000,
165760832,96.664476,12.171294,3,-0.364075,-0.859985,-0.220825,-0.281189,0.312401,0.105514,-0.536052,-0.092250,0.384945,-9.304579,96.707622,-7.410480,-9.297844,0.000000,0.000000,
165772042,96.849291,12.171294,3,-0.360779,-0.862000,-0.226685,-0.274658,0.332167,0.105074,-0.516064,-0.056134,0.393012,-9.315971,96.636195,-7.498998,-9.311114,0.000000,0.000000,
165781520,96.294908,12.171294,3,-0.357422,-0.863831,-0.232727,-0.268066,0.331399,0.124497,-0.575698,-0.079652,0.401939,-9.258670,96.535220,-7.625432,-9.272723,0.000000,0.000000,
165791146,96.573137,12.166648,3,-0.354126,-0.865540,-0.238953,-0.261414,0.311828,0.125334,-0.535919,-0.067518,0.372510,-9.286095,96.464658,-7.710545,-9.282512,0.000000,0.000000,
165802268,96.110124,12.171294,3,-0.350769,-0.867126,-0.245178,-0.254761,0.311894,0.125466,-0.515997,-0.047394,0.361279,-9.305334,96.347713,-7.853866,-9.299219,0.000000,0.000000,
165811484,96.482805,12.162001,3,-0.347473,-0.868530,-0.251648,-0.248108,0.329814,0.184221,-0.535457,-0.026784,0.339727,-9.243289,96.286609,-7.923712,-9.258275,0.000000,0.000000,
165821185,96.204088,12.166648,3,-0.344116,-0.869812,-0.258240,-0.241516,0.331595,0.124894,-0.515932,-0.017929,0.372115,-9.297887,96.202187,-8.023196,-9.287273,0.000000,0.000000,
165832309,95.740068,12.171294,3,-0.340698,-0.870972,-0.264893,-0.234863,0.332102,0.104942,-0.535986,-0.038748,0.396818,-9.296898,96.072476,-8.178463,-9.294319,0.000000,0.000000,
165841763,95.649767,12.166648,3,-0.337280,-0.872009,-0.271545,-0.228333,0.313005,0.085760,-0.526223,-0.038060,0.391525,-9.320087,95.958234,-8.314456,-9.313183,0.000000,0.000000,
165851514,96.110124,12.171294,3,-0.333862,-0.872864,-0.278259,-0.221741,0.293843,0.066446,-0.536382,-0.063742,0.392563,-9.326569,95.889817,-8.388293,-9.322982,0.000000,0.000000,
165862305,95.649767,12.166648,3,-0.330383,-0.873657,-0.285095,-0.215210,0.256156,0.008130,-0.536910,-0.104323,0.410452,-9.373131,95.778034,-8.516392,-9.359694,0.000000,0.000000,
165871762,95.367418,12.180587,3,-0.326965,-0.874268,-0.292053,-0.208557,0.216214,0.029161,-0.526947,-0.122385,0.363905,-9.375065,95.661631,-8.651482,-9.370946,0.000000,0.000000,
165881535,95.834001,12.166648,3,-0.323486,-0.874695,-0.299133,-0.201904,0.275220,0.027246,-0.556634,-0.086592,0.414250,-9.341722,95.591496,-8.723394,-9.349552,0.000000,0.000000,
165892683,95.646135,12.175941,3,-0.320007,-0.875000,-0.306274,-0.195312,0.255012,0.047770,-0.536645,-0.072029,0.378868,-9.346016,95.498383,-8.821453,-9.346964,0.000000,0.000000,
165902141,95.371050,12.171294,3,-0.316467,-0.875183,-0.313538,-0.188660,0.275318,0.027444,-0.526751,-0.064649,0.398765,-9.363074,95.403533,-8.924439,-9.358757,0.000000,0.000000,
165913017,95.649767,12.166648,3,-0.312927,-0.875244,-0.320862,-0.182007,0.316054,-0.023448,-0.556834,-0.066233,0.469962,-9.365044,95.327188,-8.998551,-9.363359,0.000000,0.000000,
165922303,95.464983,12.166648,3,-0.309265,-0.875122,-0.328186,-0.175415,0.276430,-0.012262,-0.536977,-0.079701,0.423280,-9.373751,95.255126,-9.069970,-9.370966,0.000000,0.000000,
165931997,95.458757,12.185234,3,-0.305664,-0.874878,-0.335571,-0.168823,0.258224,-0.061107,-0.517451,-0.099006,0.433916,-9.422462,95.184320,-9.138377,-9.408664,0.000000,0.000000,
165943001,95.188860,12.162001,3,-0.302002,-0.874512,-0.343018,-0.162292,0.199119,-0.059391,-0.517647,-0.140482,0.389859,-9.430725,95.083581,-9.241635,-9.424814,0.000000,0.000000,
165952334,95.834001,12.166648,3,-0.298401,-0.873962,-0.350586,-0.155701,0.219899,-0.099735,-0.537768,-0.149958,0.438209,-9.432277,95.061708,-9.244716,-9.430277,0.000000,0.000000,
165962198,95.371050,12.171294,3,-0.294678,-0.873291,-0.358154,-0.149231,0.200198,-0.099163,-0.537834,-0.163126,0.422734,-9.429169,94.996734,-9.302932,-9.429466,0.000000,0.000000,
165973311,95.000475,12.171294,3,-0.291016,-0.872437,-0.365784,-0.142700,0.237918,-0.040781,-0.527345,-0.099845,0.410705,-9.399270,94.893094,-9.406976,-9.407361,0.000000,0.000000,
165982795,95.094927,12.166648,3,-0.287354,-0.871460,-0.373413,-0.136292,0.180496,-0.098591,-0.537899,-0.168632,0.400718,-9.425144,94.820889,-9.473495,-9.420379,0.000000,0.000000,
165992344,94.537554,12.175941,3,-0.283630,-0.870300,-0.381165,-0.129944,0.199626,-0.079343,-0.537701,-0.146474,0.410383,-9.411473,94.705559,-9.595305,-9.413860,0.000000,0.000000,
166002956,94.352281,12.175941,3,-0.279968,-0.868958,-0.388916,-0.123535,0.200835,-0.118851,-0.518044,-0.166569,0.406400,-9.452960,94.572726,-9.735265,-9.442484,0.000000,0.000000,
166012554,94.725939,12.166648,3,-0.276306,-0.867493,-0.396729,-0.117310,0.200394,-0.098766,-0.478068,-0.136205,0.387080,-9.465219,94.492068,-9.808832,-9.459127,0.000000,0.000000,
166022477,94.449846,12.162001,3,-0.272705,-0.865784,-0.404602,-0.111023,0.160925,-0.097754,-0.498120,-0.171036,0.358716,-9.447549,94.390631,-9.907325,-9.450651,0.000000,0.000000,
166033623,94.261461,12.171294,3,-0.269104,-0.863892,-0.412598,-0.104858,0.181837,-0.137834,-0.478398,-0.162804,0.386736,-9.485613,94.268463,-10.027543,-9.476245,0.000000,0.000000,
166043060,95.000475,12.171294,3,-0.265625,-0.861816,-0.420654,-0.098816,0.163279,-0.176902,-0.478728,-0.202997,0.392589,-9.505251,94.236636,-10.034293,-9.497479,0.000000,0.000000,
166052656,93.983324,12.175941,3,-0.262146,-0.859558,-0.428772,-0.092773,0.162707,-0.157082,-0.478596,-0.196438,0.386797,-9.487924,94.118063,-10.153883,-9.490484,0.000000,0.000000,
166063821,93.983324,12.175941,3,-0.258789,-0.857056,-0.436951,-0.086853,0.163214,-0.177034,-0.498650,-0.216664,0.391999,-9.479291,93.992473,-10.274849,-9.482290,0.000000,0.000000,
166073056,94.170641,12.166648,3,-0.255371,-0.854370,-0.445251,-0.080994,0.183553,-0.197294,-0.478795,-0.208852,0.412531,-9.501481,93.912564,-10.342411,-9.496339,0.000000,0.000000,
166082873,94.449846,12.162001,3,-0.252075,-0.851501,-0.453613,-0.075256,0.184566,-0.237198,-0.518904,-0.252792,0.440868,-9.483335,93.856905,-10.375069,-9.486819,0.000000,0.000000,
166093791,93.798570,12.175941,3,-0.248779,-0.848389,-0.462036,-0.069580,0.243802,-0.238650,-0.478864,-0.214339,0.475180,-9.526965,93.738026,-10.485622,-9.516208,0.000000,0.000000,
166103337,93.707231,12.171294,3,-0.245544,-0.845154,-0.470459,-0.064026,0.222318,-0.178750,-0.498454,-0.186502,0.436031,-9.480546,93.634841,-10.579597,-9.490102,0.000000,0.000000,
166114204,93.892504,12.171294,3,-0.242310,-0.841675,-0.479004,-0.058533,0.265506,-0.308592,-0.479262,-0.259453,0.523606,-9.558715,93.541561,-10.654437,-9.540330,0.000000,0.000000,
166123681,93.892504,12.171294,3,-0.239136,-0.837952,-0.487610,-0.053162,0.186830,-0.306038,-0.439679,-0.284796,0.432871,-9.571198,93.470476,-10.705367,-9.562927,0.000000,0.000000,
166133248,93.801164,12.166648,3,-0.236084,-0.834045,-0.496338,-0.047913,0.226102,-0.307447,-0.479392,-0.282818,0.475937,-9.541912,93.396147,-10.759368,-9.547543,0.000000,0.000000,
166144418,93.153032,12.171294,3,-0.233032,-0.829956,-0.505005,-0.042786,0.266584,-0.348364,-0.499449,-0.305142,0.530965,-9.548369,93.254380,-10.893321,-9.548148,0.000000,0.000000,
166153667,93.522508,12.171294,3,-0.230042,-0.825623,-0.513794,-0.037720,0.286351,-0.348804,-0.479461,-0.297995,0.530999,-9.570568,93.176374,-10.951453,-9.564560,0.000000,0.000000,
166163522,93.801164,12.166648,3,-0.227173,-0.821045,-0.522766,-0.032837,0.264933,-0.288772,-0.479129,-0.261061,0.494459,-9.540814,93.121869,-10.975169,-9.547177,0.000000,0.000000,
166174351,93.337785,12.171294,3,-0.224304,-0.816162,-0.531799,-0.027954,0.226805,-0.327003,-0.439681,-0.307022,0.455938,-9.580252,93.021093,-11.054644,-9.571390,0.000000,0.000000,
166183849,93.246965,12.166648,3,-0.221558,-0.811035,-0.540894,-0.023193,0.347368,-0.409582,-0.419896,-0.328910,0.577837,-9.652072,92.935158,-11.120793,-9.630453,0.000000,0.000000,
166193697,93.156145,12.162001,3,-0.218933,-0.805725,-0.549988,-0.018555,0.307965,-0.408438,-0.420027,-0.356763,0.532640,-9.633126,92.844232,-11.190790,-9.632410,0.000000,0.000000,
166204771,92.225816,12.180587,3,-0.216370,-0.800232,-0.559143,-0.014038,0.328239,-0.428830,-0.420094,-0.371716,0.554609,-9.649141,92.666320,-11.367125,-9.644658,0.000000,0.000000,
166213942,92.598894,12.171294,3,-0.213989,-0.794434,-0.568359,-0.009583,0.329187,-0.468867,-0.480125,-0.432253,0.576332,-9.603033,92.555847,-11.462819,-9.614187,0.000000,0.000000,
166223830,92.138139,12.166648,3,-0.211670,-0.788269,-0.577698,-0.005249,0.397260,-0.430700,-0.399943,-0.362458,0.593232,-9.672468,92.406011,-11.605423,-9.656852,0.000000,0.000000,
166234666,92.689165,12.175941,3,-0.209473,-0.781860,-0.587219,-0.000916,0.367707,-0.429842,-0.400041,-0.381049,0.557677,-9.664635,92.304123,-11.678346,-9.662550,0.000000,0.000000,
166244144,92.598894,12.171294,3,-0.207397,-0.775146,-0.596802,0.003357,0.385627,-0.371087,-0.419501,-0.334481,0.560108,-9.633521,92.218449,-11.736314,-9.641299,0.000000,0.000000,
166253915,92.598894,12.171294,3,-0.205505,-0.768066,-0.606445,0.007568,0.308603,-0.428126,-0.400237,-0.412186,0.487074,-9.641284,92.136116,-11.787723,-9.641288,0.000000,0.000000,
166265058,92.691759,12.166648,3,-0.203613,-0.760742,-0.616211,0.011780,0.385693,-0.370954,-0.399579,-0.346631,0.541301,-9.650148,92.052128,-11.832883,-9.647774,0.000000,0.000000,
166274495,92.044237,12.171294,3,-0.201904,-0.753174,-0.625916,0.015869,0.346159,-0.370075,-0.439554,-0.371207,0.513692,-9.600173,91.939354,-11.924357,-9.612928,0.000000,0.000000,
166285440,91.858995,12.171294,3,-0.200378,-0.745239,-0.635681,0.019897,0.366628,-0.390070,-0.379855,-0.389567,0.502931,-9.664798,91.801319,-12.039175,-9.650900,0.000000,0.000000,
166294749,92.322832,12.166648,3,-0.198914,-0.737000,-0.645508,0.023987,0.347940,-0.429402,-0.420029,-0.449412,0.499507,-9.623932,91.733888,-12.069573,-9.631158,0.000000,0.000000,
166304390,91.671709,12.180587,3,-0.197632,-0.728516,-0.655334,0.028015,0.396050,-0.391193,-0.419601,-0.413315,0.526434,-9.629416,91.611714,-12.169417,-9.629883,0.000000,0.000000,
166315492,91.584032,12.166648,3,-0.196472,-0.719666,-0.665161,0.031982,0.346927,-0.389498,-0.379920,-0.417064,0.464546,-9.645133,91.473625,-12.279600,-9.641046,0.000000,0.000000,
166324729,91.765093,12.175941,3,-0.195435,-0.710571,-0.674988,0.036011,0.383846,-0.311759,-0.439026,-0.358237,0.501938,-9.588449,91.384960,-12.335121,-9.602542,0.000000,0.000000,
166334422,91.026323,12.175941,3,-0.194458,-0.701233,-0.684692,0.039917,0.345276,-0.329905,-0.359601,-0.369365,0.440155,-9.652030,91.234021,-12.469016,-9.638770,0.000000,0.000000,
166345587,90.931902,12.180587,3,-0.193665,-0.691711,-0.694336,0.043884,0.325950,-0.349550,-0.419564,-0.409866,0.430695,-9.594022,91.068134,-12.610037,-9.606012,0.000000,0.000000,
166355038,90.935533,12.171294,3,-0.192932,-0.681946,-0.703857,0.047791,0.305807,-0.328894,-0.379653,-0.398245,0.389909,-9.621189,90.937075,-12.715989,-9.617123,0.000000,0.000000,
166364789,90.935533,12.171294,3,-0.192322,-0.671936,-0.713318,0.051697,0.325820,-0.349815,-0.459409,-0.444271,0.427486,-9.550952,90.812496,-12.809293,-9.568682,0.000000,0.000000,
166375630,90.475359,12.166648,3,-0.191895,-0.661743,-0.722656,0.055542,0.324300,-0.289958,-0.399245,-0.379026,0.403725,-9.599814,90.643968,-12.951229,-9.591472,0.000000,0.000000,
166384993,90.841631,12.175941,3,-0.191528,-0.651367,-0.731812,0.059387,0.284766,-0.289079,-0.439220,-0.390435,0.367338,-9.541454,90.539351,-13.018194,-9.554856,0.000000,0.000000,
166394743,90.751360,12.171294,3,-0.191284,-0.640747,-0.740845,0.063171,0.305170,-0.309206,-0.399443,-0.408052,0.362950,-9.594654,90.430242,-13.087909,-9.583991,0.000000,0.000000,
166405649,89.826952,12.171294,3,-0.191162,-0.629944,-0.749756,0.066956,0.323531,-0.270536,-0.458879,-0.390591,0.394930,-9.537304,90.234893,-13.259598,-9.549814,0.000000,0.000000,
166415272,89.920824,12.166648,3,-0.191101,-0.618896,-0.758606,0.070740,0.305105,-0.309339,-0.419365,-0.426231,0.353890,-9.574263,90.079742,-13.387226,-9.567712,0.000000,0.000000,
166425139,89.733049,12.175941,3,-0.191162,-0.607605,-0.767273,0.074463,0.322232,-0.220721,-0.418704,-0.349865,0.379544,-9.568988,89.917283,-13.520667,-9.568646,0.000000,0.000000,
166435956,89.733049,12.175941,3,-0.191284,-0.596130,-0.775879,0.078186,0.264427,-0.268819,-0.459075,-0.402073,0.323436,-9.508764,89.754574,-13.644245,-9.524809,0.000000,0.000000,
166445368,89.920824,12.166648,3,-0.191467,-0.584351,-0.784302,0.081970,0.185751,-0.266266,-0.419492,-0.380066,0.230185,-9.514430,89.640085,-13.714984,-9.517211,0.000000,0.000000,
166455072,89.642290,12.171294,3,-0.191711,-0.572449,-0.792603,0.085632,0.115741,-0.234931,-0.479288,-0.349722,0.193612,-9.433272,89.506743,-13.806276,-9.455763,0.000000,0.000000,
166466163,89.269853,12.180587,3,-0.191956,-0.560303,-0.800781,0.089355,0.203761,-0.217818,-0.498784,-0.361121,0.275960,-9.441797,89.332595,-13.937574,-9.445540,0.000000,0.000000,
166475668,88.990770,12.185234,3,-0.192322,-0.547913,-0.808777,0.093079,0.184125,-0.217114,-0.478927,-0.359838,0.246260,-9.458599,89.170175,-14.066175,-9.455100,0.000000,0.000000,
166486701,88.994402,12.175941,3,-0.192749,-0.535400,-0.816589,0.096741,0.183046,-0.177341,-0.458741,-0.318616,0.249014,-9.469964,88.999220,-14.190449,-9.465981,0.000000,0.000000,
166495962,89.182176,12.166648,3,-0.193237,-0.522827,-0.824158,0.100403,0.223593,-0.218125,-0.458875,-0.371612,0.261754,-9.486486,88.883203,-14.257538,-9.480992,0.000000,0.000000,
166505660,88.625108,12.175941,3,-0.193665,-0.510071,-0.831543,0.103943,0.133155,-0.156223,-0.478694,-0.292362,0.210763,-9.422169,88.722228,-14.378004,-9.437931,0.000000,0.000000,
166516637,88.903642,12.171294,3,-0.194153,-0.497253,-0.838745,0.107483,0.095974,-0.234491,-0.499276,-0.350432,0.150511,-9.399432,88.579497,-14.460810,-9.409747,0.000000,0.000000,
166525892,88.903642,12.171294,3,-0.194641,-0.484192,-0.845764,0.110901,0.094765,-0.194984,-0.518933,-0.318086,0.173550,-9.377308,88.473248,-14.510875,-9.386000,0.000000,0.000000,
166535869,88.530718,12.180587,3,-0.195129,-0.471069,-0.852600,0.114319,0.093686,-0.155212,-0.498746,-0.292510,0.167296,-9.390699,88.332962,-14.598103,-9.389440,0.000000,0.000000,
166546980,88.903642,12.171294,3,-0.195557,-0.457764,-0.859314,0.117676,0.093016,-0.135590,-0.528497,-0.287109,0.191523,-9.366698,88.219463,-14.638043,-9.372792,0.000000,0.000000,
166556315,88.161424,12.180587,3,-0.196045,-0.444275,-0.865784,0.120972,0.112718,-0.136162,-0.528432,-0.298089,0.202343,-9.373620,88.077395,-14.732128,-9.373398,0.000000,0.000000,
166565899,87.979387,12.171294,3,-0.196472,-0.430725,-0.872009,0.124207,0.055492,-0.193575,-0.479220,-0.298074,0.101242,-9.383392,87.927319,-14.833099,-9.380714,0.000000,0.000000,
166576768,88.070665,12.175941,3,-0.196899,-0.417175,-0.878052,0.127319,0.035153,-0.173315,-0.499075,-0.277026,0.110612,-9.359178,87.777914,-14.918746,-9.364948,0.000000,0.000000,
166586253,87.610124,12.171294,3,-0.197266,-0.403564,-0.883850,0.130432,-0.054746,-0.131300,-0.528987,-0.204967,0.082091,-9.291990,87.621512,-15.025824,-9.311539,0.000000,0.000000,
166596110,87.422899,12.180587,3,-0.197571,-0.389893,-0.889465,0.133423,-0.103460,-0.149756,-0.539244,-0.182470,0.037671,-9.263676,87.455830,-15.139471,-9.276501,0.000000,0.000000,
166607250,87.425493,12.171294,3,-0.197876,-0.376221,-0.894836,0.136292,-0.083187,-0.170148,-0.539311,-0.203349,0.039807,-9.267586,87.283982,-15.246121,-9.269975,0.000000,0.000000,
166616728,87.425493,12.171294,3,-0.198181,-0.362427,-0.900024,0.139099,-0.184114,-0.088272,-0.578952,-0.091244,0.050306,-9.192290,87.151293,-15.317180,-9.213106,0.000000,0.000000,
166626347,86.593187,12.175941,3,-0.198364,-0.348694,-0.904968,0.141846,-0.165393,-0.048874,-0.528817,-0.059306,0.077698,-9.258842,86.955386,-15.469156,-9.246587,0.000000,0.000000,
166637516,86.684435,12.180587,3,-0.198547,-0.334900,-0.909668,0.144470,-0.244297,-0.046784,-0.558961,-0.010847,0.050311,-9.191462,86.758647,-15.602269,-9.206232,0.000000,0.000000,
166646757,87.150133,12.166648,3,-0.198669,-0.321167,-0.914185,0.147034,-0.246299,0.022586,-0.558498,0.041238,0.103324,-9.194313,86.647885,-15.642840,-9.197507,0.000000,0.000000,
166656526,86.958757,12.185234,3,-0.198669,-0.307556,-0.918457,0.149414,-0.245343,-0.006945,-0.528813,0.028049,0.079666,-9.224471,86.521438,-15.697965,-9.217246,0.000000,0.000000,
166667476,86.687029,12.171294,3,-0.198669,-0.294067,-0.922546,0.151672,-0.245793,0.002634,-0.578552,0.026355,0.102365,-9.182652,86.363287,-15.779932,-9.191921,0.000000,0.000000,
166676970,86.317827,12.171294,3,-0.198547,-0.280762,-0.926331,0.153748,-0.274487,-0.026238,-0.578849,0.031755,0.084572,-9.160737,86.209136,-15.872039,-9.169093,0.000000,0.000000,
166687877,86.132189,12.171294,3,-0.198303,-0.267639,-0.929932,0.155701,-0.226026,0.002194,-0.558565,0.013297,0.119119,-9.204601,86.028825,-15.981086,-9.195087,0.000000,0.000000,
166697177,86.317827,12.171294,3,-0.197937,-0.254761,-0.933350,0.157471,-0.272771,-0.085698,-0.579246,-0.000069,0.043326,-9.160223,85.904768,-16.033495,-9.169565,0.000000,0.000000,
166706804,85.763506,12.171294,3,-0.197510,-0.242126,-0.936523,0.159180,-0.261776,-0.125624,-0.579478,-0.025545,0.016880,-9.153306,85.737809,-16.137521,-9.157663,0.000000,0.000000,
166717943,85.763506,12.171294,3,-0.196899,-0.229736,-0.939514,0.160706,-0.243218,-0.086556,-0.579148,-0.019046,0.064312,-9.166814,85.559702,-16.236743,-9.164362,0.000000,0.000000,
166727155,85.299944,12.175941,3,-0.196106,-0.217529,-0.942322,0.162170,-0.293110,-0.065438,-0.599101,0.030662,0.068335,-9.131741,85.387316,-16.350272,-9.140482,0.000000,0.000000,
166736984,85.578905,12.171294,3,-0.195190,-0.205566,-0.944946,0.163452,-0.312942,-0.065131,-0.639010,0.043248,0.088838,-9.090950,85.242689,-16.418093,-9.104222,0.000000,0.000000,
166747804,84.837450,12.180587,3,-0.194153,-0.193787,-0.947449,0.164612,-0.264636,-0.026524,-0.578816,0.038110,0.121100,-9.175556,85.029542,-16.562831,-9.156442,0.000000,0.000000,
166757327,84.933885,12.166648,3,-0.192871,-0.182251,-0.949768,0.165710,-0.312370,-0.084951,-0.639143,0.037205,0.078478,-9.083479,84.863149,-16.660122,-9.103029,0.000000,0.000000,
166767070,84.931291,12.175941,3,-0.191528,-0.170959,-0.952026,0.166626,-0.263623,-0.066429,-0.618925,0.012363,0.100727,-9.133460,84.706270,-16.741446,-9.125306,0.000000,0.000000,
166778186,84.561632,12.175941,3,-0.190063,-0.159912,-0.954102,0.167358,-0.313514,-0.045311,-0.638878,0.057085,0.124597,-9.097997,84.507128,-16.858816,-9.105315,0.000000,0.000000,
166787473,84.283220,12.180587,3,-0.188416,-0.149048,-0.956055,0.167908,-0.263181,-0.086514,-0.658901,-0.002932,0.107357,-9.089741,84.330839,-16.968579,-9.093914,0.000000,0.000000,
166797331,83.638292,12.175941,3,-0.186707,-0.138367,-0.957947,0.168335,-0.242842,-0.106773,-0.639046,-0.017218,0.089599,-9.111503,84.103408,-17.136276,-9.106790,0.000000,0.000000,
166808063,84.377062,12.175941,3,-0.184875,-0.127991,-0.959717,0.168579,-0.165883,-0.049867,-0.678232,-0.080652,0.170217,-9.122635,83.942586,-17.203447,-9.118389,0.000000,0.000000,
166817739,84.098131,12.180587,3,-0.182861,-0.117737,-0.961365,0.168701,-0.244624,-0.047446,-0.658571,0.006023,0.150021,-9.112536,83.789125,-17.274048,-9.114104,0.000000,0.000000,
166827526,84.007402,12.175941,3,-0.180725,-0.107666,-0.962952,0.168701,-0.262609,-0.106334,-0.659034,0.010477,0.100764,-9.084769,83.638454,-17.338387,-9.092629,0.000000,0.000000,
166838727,83.822832,12.175941,3,-0.178406,-0.097778,-0.964478,0.168518,-0.244558,-0.047313,-0.638649,0.018038,0.150440,-9.129653,83.459592,-17.419921,-9.119732,0.000000,0.000000,
166848140,83.453722,12.175941,3,-0.176025,-0.088135,-0.965881,0.168274,-0.265821,0.002544,-0.678228,0.038508,0.211747,-9.105037,83.294709,-17.506288,-9.108975,0.000000,0.000000,
166857876,83.453722,12.175941,3,-0.173462,-0.078674,-0.967224,0.167908,-0.186598,-0.009390,-0.638188,-0.019830,0.191666,-9.163479,83.137551,-17.577573,-9.148875,0.000000,0.000000,
166868955,83.547045,12.171294,3,-0.170837,-0.069458,-0.968506,0.167419,-0.186925,-0.010052,-0.737799,-0.054770,0.227247,-9.077459,82.977617,-17.632119,-9.096595,0.000000,0.000000,
166878367,83.084642,12.175941,3,-0.168152,-0.060364,-0.969666,0.166870,-0.168016,0.019238,-0.717613,-0.056450,0.252069,-9.108973,82.820506,-17.705717,-9.105656,0.000000,0.000000,
166889126,82.251604,12.180587,3,-0.165344,-0.051392,-0.970764,0.166138,-0.246119,0.001972,-0.678162,0.027229,0.217728,-9.107758,82.580334,-17.867849,-9.107195,0.000000,0.000000,
166898398,82.715013,12.175941,3,-0.162415,-0.042664,-0.971863,0.165283,-0.167092,-0.010359,-0.697889,-0.052178,0.215929,-9.120151,82.425904,-17.937144,-9.116680,0.000000,0.000000,
166907992,82.715013,12.175941,3,-0.159424,-0.034119,-0.972839,0.164368,-0.127624,-0.011371,-0.677837,-0.085058,0.205338,-9.144641,82.278322,-17.992329,-9.137149,0.000000,0.000000,
166919062,82.161424,12.175941,3,-0.156311,-0.025818,-0.973755,0.163330,-0.147554,-0.011262,-0.747629,-0.076805,0.225035,-9.075875,82.068505,-18.105935,-9.092293,0.000000,0.000000,
166928539,82.255235,12.171294,3,-0.153137,-0.017639,-0.974670,0.162170,-0.068936,-0.003442,-0.717418,-0.142412,0.222037,-9.135270,81.912626,-18.171394,-9.123754,0.000000,0.000000,
166938314,82.161424,12.175941,3,-0.149841,-0.009705,-0.975464,0.161011,-0.088286,-0.012647,-0.697628,-0.113613,0.212618,-9.136653,81.756020,-18.232699,-9.133197,0.000000,0.000000,
166949236,81.792894,12.175941,3,-0.146423,-0.001831,-0.976257,0.159729,0.010059,-0.015839,-0.747106,-0.216582,0.217128,-9.119399,81.559522,-18.328164,-9.123096,0.000000,0.000000,
166958699,81.422807,12.175941,3,-0.143005,0.005798,-0.976929,0.158447,0.048064,0.032633,-0.736684,-0.251031,0.254073,-9.156080,81.373867,-18.430288,-9.147242,0.000000,0.000000,
166968370,81.517137,12.171294,3,-0.139465,0.013367,-0.977600,0.157104,0.027186,0.072779,-0.746445,-0.229230,0.285851,-9.151734,81.207553,-18.502670,-9.150531,0.000000,0.000000,
166979537,81.148088,12.171294,3,-0.135864,0.020813,-0.978210,0.155701,-0.032491,0.094315,-0.746509,-0.171494,0.315929,-9.135285,80.995232,-18.611362,-9.139370,0.000000,0.000000,
166988919,80.963060,12.171294,3,-0.132202,0.028137,-0.978760,0.154236,0.008628,0.033711,-0.746775,-0.207944,0.249948,-9.126075,80.817441,-18.700622,-9.129637,0.000000,0.000000,
166998680,80.778551,12.171294,3,-0.128540,0.035339,-0.979248,0.152710,-0.009643,-0.015267,-0.747172,-0.184971,0.203047,-9.106190,80.631117,-18.793887,-9.112473,0.000000,0.000000,
167009539,80.684770,12.175941,3,-0.124878,0.042480,-0.979675,0.151184,0.086863,0.051243,-0.746382,-0.275311,0.243963,-9.147997,80.431124,-18.887188,-9.138478,0.000000,0.000000,
167019020,80.405931,12.180587,3,-0.121216,0.049622,-0.980042,0.149658,0.123405,0.149198,-0.745589,-0.314501,0.333749,-9.179153,80.249466,-18.977076,-9.168254,0.000000,0.000000,
167028769,79.761247,12.175941,3,-0.117554,0.056763,-0.980347,0.148071,0.064677,0.130697,-0.805683,-0.267428,0.332602,-9.104116,80.021930,-19.120770,-9.121301,0.000000,0.000000,
167039915,80.040575,12.171294,3,-0.113953,0.063904,-0.980530,0.146545,0.140688,0.227641,-0.784838,-0.339370,0.408199,-9.170503,79.809848,-19.220873,-9.157319,0.000000,0.000000,
167049271,79.946764,12.175941,3,-0.110291,0.070923,-0.980713,0.145081,0.121714,0.198218,-0.824946,-0.335542,0.386399,-9.114516,79.641445,-19.290617,-9.125985,0.000000,0.000000,
167059100,79.576769,12.175941,3,-0.106628,0.077820,-0.980774,0.143555,0.140050,0.247329,-0.804628,-0.351139,0.420616,-9.142027,79.445817,-19.387756,-9.137728,0.000000,0.000000,
167070035,79.580370,12.166648,3,-0.103027,0.084717,-0.980835,0.142090,0.169161,0.266555,-0.764553,-0.366891,0.416078,-9.193853,79.244876,-19.473151,-9.178814,0.000000,0.000000,
167079384,78.748155,12.171294,3,-0.099365,0.091614,-0.980835,0.140503,0.149967,0.247175,-0.784673,-0.347667,0.406102,-9.159829,79.019533,-19.615028,-9.164916,0.000000,0.000000,
167089175,78.932634,12.171294,3,-0.095825,0.098511,-0.980713,0.139038,0.228838,0.245019,-0.764490,-0.421320,0.368412,-9.183749,78.819548,-19.714723,-9.178703,0.000000,0.000000,
